,ax,ay,az,gx,gy,gz,time
0,0.017333984375,-0.08203125,0.9892578125,2.197265625,0.946044921875,-0.091552734375,0.0
1,0.020263671875,-0.09033203125,0.989990234375,1.983642578125,0.91552734375,0.1220703125,0.0033333333333333335
2,0.021728515625,-0.076171875,0.984130859375,2.166748046875,1.03759765625,-0.213623046875,0.006666666666666667
3,0.01611328125,-0.0908203125,0.980224609375,2.01416015625,1.007080078125,-0.030517578125,0.01
4,0.021240234375,-0.086669921875,0.980224609375,2.105712890625,0.9765625,0.0,0.013333333333333334
5,0.023193359375,-0.0791015625,0.981689453125,2.166748046875,0.9765625,0.030517578125,0.016666666666666666
6,0.01806640625,-0.0830078125,0.98388671875,2.227783203125,0.9765625,-0.091552734375,0.02
7,0.021484375,-0.081298828125,0.98779296875,2.227783203125,0.91552734375,-0.152587890625,0.023333333333333334
8,0.017822265625,-0.086669921875,0.974609375,2.13623046875,0.6103515625,-0.335693359375,0.02666666666666667
9,0.019287109375,-0.085693359375,0.965087890625,2.0751953125,1.190185546875,-0.091552734375,0.03
10,0.020751953125,-0.096435546875,0.981689453125,2.0751953125,0.79345703125,-0.1220703125,0.03333333333333333
11,0.01806640625,-0.093505859375,0.99267578125,2.105712890625,1.220703125,0.0,0.03666666666666667
12,0.013916015625,-0.091552734375,0.9794921875,1.922607421875,0.946044921875,-0.1220703125,0.04
13,0.0107421875,-0.088623046875,0.980712890625,2.197265625,0.823974609375,-0.091552734375,0.043333333333333335
14,0.021240234375,-0.088134765625,0.984375,2.227783203125,0.946044921875,-0.091552734375,0.04666666666666667
15,0.023193359375,-0.0810546875,0.98681640625,2.13623046875,0.9765625,-0.244140625,0.05
16,0.0185546875,-0.075439453125,0.985595703125,1.89208984375,1.03759765625,0.244140625,0.05333333333333334
17,0.025390625,-0.087890625,0.984619140625,2.0751953125,1.28173828125,-0.091552734375,0.056666666666666664
18,0.0224609375,-0.08251953125,0.975341796875,2.227783203125,0.9765625,-0.1220703125,0.06
19,0.019775390625,-0.095703125,0.9833984375,2.105712890625,0.762939453125,-0.274658203125,0.06333333333333334
20,0.020263671875,-0.086181640625,0.98974609375,2.13623046875,1.251220703125,-0.18310546875,0.06666666666666667
21,0.012939453125,-0.08251953125,0.9873046875,2.227783203125,0.701904296875,0.091552734375,0.07
22,0.018310546875,-0.083984375,0.991455078125,2.01416015625,1.129150390625,-0.091552734375,0.07333333333333333
23,0.01611328125,-0.084228515625,0.970458984375,2.0751953125,0.91552734375,-0.1220703125,0.07666666666666666
24,0.019775390625,-0.085693359375,0.984619140625,1.953125,0.885009765625,0.0,0.08
25,0.023681640625,-0.085693359375,0.975830078125,2.044677734375,1.190185546875,-0.1220703125,0.08333333333333333
26,0.019775390625,-0.082275390625,0.99072265625,2.044677734375,0.885009765625,-0.091552734375,0.08666666666666667
27,0.020263671875,-0.074951171875,0.990234375,1.89208984375,1.007080078125,-0.030517578125,0.09
28,0.016357421875,-0.084228515625,0.994140625,2.0751953125,1.068115234375,0.0,0.09333333333333334
29,0.01416015625,-0.081298828125,0.97998046875,2.105712890625,0.8544921875,-0.1220703125,0.09666666666666666
30,0.0224609375,-0.073974609375,0.97216796875,2.01416015625,1.0986328125,-0.244140625,0.1
31,0.0166015625,-0.088134765625,0.984619140625,2.288818359375,1.007080078125,-0.091552734375,0.10333333333333333
32,0.0166015625,-0.084228515625,0.9794921875,2.166748046875,0.946044921875,0.0,0.10666666666666667
33,0.01806640625,-0.09033203125,0.990478515625,2.288818359375,1.15966796875,0.06103515625,0.11
34,0.020263671875,-0.088134765625,0.988525390625,2.0751953125,0.946044921875,-0.213623046875,0.11333333333333333
35,0.013916015625,-0.080810546875,0.973388671875,2.25830078125,0.9765625,-0.152587890625,0.11666666666666667
36,0.02294921875,-0.083740234375,0.982177734375,2.105712890625,1.0986328125,-0.152587890625,0.12
37,0.010986328125,-0.0888671875,0.97900390625,2.0751953125,0.91552734375,0.06103515625,0.12333333333333334
38,0.012939453125,-0.0810546875,0.98193359375,2.105712890625,1.129150390625,-0.18310546875,0.12666666666666668
39,0.01171875,-0.08251953125,0.98388671875,2.105712890625,0.823974609375,-0.244140625,0.13
40,0.020263671875,-0.077880859375,0.987548828125,2.105712890625,1.068115234375,-0.18310546875,0.13333333333333333
41,0.01806640625,-0.081787109375,0.984375,2.197265625,0.946044921875,-0.42724609375,0.13666666666666666
42,0.01611328125,-0.08544921875,0.988037109375,1.983642578125,0.8544921875,-0.06103515625,0.14
43,0.019775390625,-0.078125,0.979248046875,2.166748046875,1.03759765625,-0.1220703125,0.14333333333333334
44,0.019287109375,-0.087646484375,0.981201171875,2.13623046875,0.885009765625,0.091552734375,0.14666666666666667
45,0.024169921875,-0.08349609375,0.987548828125,2.01416015625,0.885009765625,0.0,0.15
46,0.0126953125,-0.084228515625,0.97998046875,2.105712890625,0.91552734375,-0.030517578125,0.15333333333333332
47,0.015380859375,-0.07861328125,0.9775390625,2.25830078125,1.0986328125,-0.152587890625,0.15666666666666668
48,0.017578125,-0.08740234375,0.98388671875,2.0751953125,0.91552734375,-0.091552734375,0.16
49,0.017822265625,-0.0830078125,0.98779296875,2.01416015625,0.91552734375,-0.06103515625,0.16333333333333333
50,0.0166015625,-0.07861328125,0.98486328125,1.922607421875,0.8544921875,-0.1220703125,0.16666666666666666
51,0.01953125,-0.091064453125,0.981201171875,2.38037109375,1.007080078125,-0.18310546875,0.17
52,0.01708984375,-0.076171875,0.984375,2.197265625,0.91552734375,0.030517578125,0.17333333333333334
53,0.016357421875,-0.08642578125,0.994873046875,2.0751953125,0.946044921875,-0.18310546875,0.17666666666666667
54,0.018798828125,-0.092041015625,0.98583984375,2.0751953125,0.946044921875,-0.1220703125,0.18
55,0.015625,-0.08203125,0.9833984375,2.105712890625,1.03759765625,-0.244140625,0.18333333333333332
56,0.015869140625,-0.09228515625,0.975341796875,2.349853515625,1.007080078125,-0.1220703125,0.18666666666666668
57,0.02099609375,-0.078125,0.982666015625,2.0751953125,0.8544921875,-0.18310546875,0.19
58,0.0224609375,-0.0908203125,0.98583984375,2.197265625,1.007080078125,0.152587890625,0.19333333333333333
59,0.015625,-0.082275390625,0.984130859375,2.0751953125,0.9765625,-0.152587890625,0.19666666666666666
60,0.018310546875,-0.083984375,0.981201171875,2.01416015625,1.03759765625,0.0,0.2
61,0.02392578125,-0.089111328125,0.984619140625,1.861572265625,0.762939453125,-0.091552734375,0.20333333333333334
62,0.021728515625,-0.09130859375,0.984130859375,2.166748046875,1.15966796875,-0.213623046875,0.20666666666666667
63,0.01904296875,-0.08251953125,0.978515625,2.197265625,0.9765625,0.0,0.21
64,0.0263671875,-0.07666015625,0.985595703125,2.197265625,1.03759765625,-0.213623046875,0.21333333333333335
65,0.020751953125,-0.0810546875,0.98876953125,2.227783203125,1.068115234375,-0.06103515625,0.21666666666666667
66,0.02099609375,-0.08544921875,0.97998046875,2.105712890625,1.03759765625,0.0,0.22
67,0.022705078125,-0.086669921875,0.980224609375,2.3193359375,1.068115234375,-0.152587890625,0.22333333333333333
68,0.017578125,-0.07861328125,0.98046875,2.197265625,1.007080078125,-0.030517578125,0.22666666666666666
69,0.017333984375,-0.0927734375,0.9833984375,2.0751953125,0.91552734375,-0.091552734375,0.23
70,0.0185546875,-0.083984375,0.98583984375,2.166748046875,0.9765625,-0.1220703125,0.23333333333333334
71,0.013427734375,-0.082763671875,0.984619140625,2.166748046875,0.946044921875,-0.1220703125,0.23666666666666666
72,0.017822265625,-0.081298828125,0.978515625,2.13623046875,0.79345703125,-0.1220703125,0.24
73,0.024658203125,-0.0810546875,0.984619140625,2.044677734375,0.885009765625,0.030517578125,0.24333333333333335
74,0.02001953125,-0.083984375,0.981689453125,2.288818359375,1.03759765625,-0.030517578125,0.24666666666666667
75,0.01513671875,-0.092041015625,0.98681640625,2.105712890625,0.8544921875,-0.1220703125,0.25
76,0.023193359375,-0.08056640625,0.987548828125,2.13623046875,0.946044921875,-0.213623046875,0.25333333333333335
77,0.01806640625,-0.0810546875,0.9794921875,2.13623046875,0.9765625,-0.152587890625,0.25666666666666665
78,0.020751953125,-0.089599609375,0.98291015625,2.288818359375,1.0986328125,0.091552734375,0.26
79,0.014892578125,-0.077880859375,0.9873046875,2.166748046875,0.885009765625,-0.3662109375,0.2633333333333333
80,0.019775390625,-0.09326171875,0.980224609375,2.197265625,1.007080078125,0.030517578125,0.26666666666666666
81,0.0185546875,-0.094970703125,0.987548828125,2.13623046875,1.007080078125,-0.274658203125,0.27
82,0.02099609375,-0.07861328125,0.98681640625,2.288818359375,0.946044921875,0.0,0.2733333333333333
83,0.0205078125,-0.076416015625,0.97900390625,2.349853515625,1.0986328125,0.06103515625,0.27666666666666667
84,0.013427734375,-0.080810546875,0.9814453125,2.227783203125,0.79345703125,-0.1220703125,0.28
85,0.01806640625,-0.07861328125,0.984619140625,2.166748046875,1.129150390625,-0.030517578125,0.2833333333333333
86,0.014892578125,-0.0830078125,0.98291015625,2.25830078125,1.007080078125,-0.091552734375,0.2866666666666667
87,0.02001953125,-0.079345703125,0.98193359375,2.13623046875,0.8544921875,-0.152587890625,0.29
88,0.021240234375,-0.09228515625,0.977783203125,2.166748046875,1.0986328125,-0.091552734375,0.29333333333333333
89,0.019287109375,-0.085693359375,0.984619140625,2.13623046875,0.79345703125,0.0,0.2966666666666667
90,0.018798828125,-0.088623046875,0.9892578125,2.410888671875,1.03759765625,-0.18310546875,0.3
91,0.0205078125,-0.08740234375,0.9892578125,2.105712890625,0.8544921875,-0.152587890625,0.30333333333333334
92,0.0185546875,-0.08544921875,0.9765625,2.044677734375,0.91552734375,-0.152587890625,0.30666666666666664
93,0.02197265625,-0.08740234375,0.980224609375,2.3193359375,1.03759765625,-0.152587890625,0.31
94,0.013671875,-0.0849609375,0.98583984375,2.0751953125,0.8544921875,-0.091552734375,0.31333333333333335
95,0.014404296875,-0.083251953125,0.9814453125,2.227783203125,1.068115234375,-0.18310546875,0.31666666666666665
96,0.01904296875,-0.084228515625,0.982177734375,2.166748046875,0.885009765625,0.0,0.32
97,0.014892578125,-0.085693359375,0.979248046875,2.13623046875,1.068115234375,-0.213623046875,0.3233333333333333
98,0.01416015625,-0.093017578125,0.987060546875,2.0751953125,0.823974609375,0.091552734375,0.32666666666666666
99,0.021484375,-0.080078125,0.990966796875,2.44140625,1.068115234375,-0.152587890625,0.33
100,0.021240234375,-0.086669921875,0.98583984375,2.166748046875,0.823974609375,-0.152587890625,0.3333333333333333
101,0.018798828125,-0.08544921875,0.988037109375,2.197265625,0.9765625,-0.18310546875,0.33666666666666667
102,0.021484375,-0.089111328125,0.981689453125,2.288818359375,1.068115234375,-0.213623046875,0.34
103,0.0166015625,-0.080078125,0.98095703125,2.13623046875,1.007080078125,-0.274658203125,0.3433333333333333
104,0.0244140625,-0.091552734375,0.98974609375,2.105712890625,0.946044921875,0.091552734375,0.3466666666666667
105,0.0234375,-0.0888671875,0.989501953125,2.166748046875,0.91552734375,0.0,0.35
106,0.017333984375,-0.08447265625,0.9853515625,2.288818359375,0.885009765625,-0.30517578125,0.35333333333333333
107,0.01806640625,-0.08837890625,0.97998046875,2.166748046875,1.007080078125,-0.06103515625,0.3566666666666667
108,0.020263671875,-0.080322265625,0.9775390625,2.13623046875,0.823974609375,-0.152587890625,0.36
109,0.020751953125,-0.089111328125,0.9873046875,2.227783203125,1.190185546875,-0.1220703125,0.36333333333333334
110,0.019775390625,-0.08544921875,0.996337890625,2.227783203125,0.946044921875,0.0,0.36666666666666664
111,0.02392578125,-0.080810546875,0.98046875,2.227783203125,0.9765625,-0.030517578125,0.37
112,0.0263671875,-0.084228515625,0.982666015625,2.227783203125,0.9765625,-0.091552734375,0.37333333333333335
113,0.0185546875,-0.07470703125,0.9912109375,2.105712890625,0.9765625,0.18310546875,0.37666666666666665
114,0.0126953125,-0.090576171875,0.97802734375,2.166748046875,0.8544921875,-0.091552734375,0.38
115,0.01953125,-0.08203125,0.98828125,2.105712890625,0.8544921875,-0.152587890625,0.38333333333333336
116,0.01708984375,-0.080810546875,0.984375,2.25830078125,1.068115234375,-0.1220703125,0.38666666666666666
117,0.017578125,-0.08740234375,0.972900390625,2.13623046875,0.885009765625,-0.06103515625,0.39
118,0.022705078125,-0.07568359375,0.9794921875,2.166748046875,0.885009765625,-0.152587890625,0.3933333333333333
119,0.013916015625,-0.083251953125,0.9765625,2.288818359375,0.9765625,-0.152587890625,0.39666666666666667
120,0.02392578125,-0.083251953125,0.98291015625,2.13623046875,0.91552734375,0.0,0.4
121,0.02197265625,-0.08544921875,0.98486328125,2.349853515625,0.885009765625,-0.18310546875,0.4033333333333333
122,0.0185546875,-0.08642578125,0.98583984375,2.25830078125,0.91552734375,-0.244140625,0.4066666666666667
123,0.01513671875,-0.0830078125,0.978759765625,2.105712890625,0.823974609375,-0.18310546875,0.41
124,0.023681640625,-0.08056640625,0.9892578125,2.227783203125,1.068115234375,-0.1220703125,0.41333333333333333
125,0.01953125,-0.09130859375,0.9736328125,2.3193359375,0.946044921875,0.091552734375,0.4166666666666667
126,0.017822265625,-0.081787109375,0.984619140625,2.13623046875,0.91552734375,-0.30517578125,0.42
127,0.017822265625,-0.09130859375,0.9833984375,2.105712890625,1.190185546875,-0.030517578125,0.42333333333333334
128,0.01171875,-0.091796875,0.97607421875,2.13623046875,1.007080078125,-0.1220703125,0.4266666666666667
129,0.01806640625,-0.08447265625,0.988037109375,2.13623046875,0.946044921875,0.0,0.43
130,0.015380859375,-0.08349609375,0.990234375,2.288818359375,0.9765625,-0.06103515625,0.43333333333333335
131,0.01708984375,-0.08935546875,0.982666015625,2.0751953125,1.007080078125,-0.091552734375,0.43666666666666665
132,0.01953125,-0.0849609375,0.9873046875,2.25830078125,0.91552734375,-0.18310546875,0.44
133,0.015380859375,-0.08544921875,0.98828125,2.166748046875,0.9765625,-0.030517578125,0.44333333333333336
134,0.017333984375,-0.08642578125,0.98583984375,2.13623046875,0.946044921875,-0.091552734375,0.44666666666666666
135,0.024658203125,-0.07861328125,0.988037109375,2.197265625,1.0986328125,-0.213623046875,0.45
136,0.020751953125,-0.087646484375,0.986083984375,2.13623046875,0.91552734375,-0.1220703125,0.4533333333333333
137,0.015869140625,-0.083251953125,0.982177734375,2.166748046875,1.03759765625,-0.091552734375,0.45666666666666667
138,0.019287109375,-0.080322265625,0.9853515625,2.349853515625,1.03759765625,0.0,0.46
139,0.0126953125,-0.08203125,0.9853515625,2.0751953125,0.9765625,-0.091552734375,0.4633333333333333
140,0.0224609375,-0.087890625,0.98486328125,2.105712890625,0.946044921875,-0.152587890625,0.4666666666666667
141,0.01953125,-0.092041015625,0.9833984375,2.25830078125,1.007080078125,0.030517578125,0.47
142,0.0224609375,-0.083740234375,0.977783203125,1.953125,0.91552734375,-0.1220703125,0.47333333333333333
143,0.019775390625,-0.0888671875,0.9794921875,2.227783203125,1.15966796875,-0.152587890625,0.4766666666666667
144,0.0185546875,-0.088623046875,0.98681640625,2.288818359375,0.946044921875,-0.030517578125,0.48
145,0.022705078125,-0.08935546875,0.98046875,2.01416015625,1.068115234375,-0.152587890625,0.48333333333333334
146,0.0205078125,-0.08544921875,0.983154296875,2.227783203125,1.007080078125,-0.213623046875,0.4866666666666667
147,0.01416015625,-0.07470703125,0.99072265625,2.044677734375,0.823974609375,-0.213623046875,0.49
148,0.016357421875,-0.093994140625,0.9794921875,2.227783203125,1.03759765625,-0.030517578125,0.49333333333333335
149,0.019775390625,-0.076171875,0.97900390625,2.01416015625,0.8544921875,-0.18310546875,0.49666666666666665
150,0.019775390625,-0.07958984375,0.981689453125,2.25830078125,1.0986328125,0.091552734375,0.5
151,0.02001953125,-0.078369140625,0.98291015625,2.166748046875,0.9765625,-0.06103515625,0.5033333333333333
152,0.018310546875,-0.082275390625,0.982666015625,2.227783203125,0.91552734375,-0.1220703125,0.5066666666666667
153,0.02294921875,-0.0830078125,0.9794921875,2.166748046875,0.701904296875,-0.213623046875,0.51
154,0.013671875,-0.08642578125,0.98193359375,2.227783203125,1.0986328125,-0.091552734375,0.5133333333333333
155,0.016357421875,-0.08984375,0.982666015625,2.01416015625,0.8544921875,-0.030517578125,0.5166666666666667
156,0.0234375,-0.0830078125,0.978271484375,2.227783203125,0.823974609375,0.0,0.52
157,0.01611328125,-0.085205078125,0.988037109375,2.105712890625,0.946044921875,-0.244140625,0.5233333333333333
158,0.0146484375,-0.088134765625,0.9873046875,2.13623046875,0.91552734375,-0.06103515625,0.5266666666666666
159,0.01806640625,-0.08642578125,0.984375,2.13623046875,1.007080078125,-0.091552734375,0.53
160,0.017578125,-0.080322265625,0.988037109375,2.25830078125,1.03759765625,-0.091552734375,0.5333333333333333
161,0.02197265625,-0.085693359375,0.982666015625,1.983642578125,0.8544921875,-0.091552734375,0.5366666666666666
162,0.016845703125,-0.091796875,0.987060546875,2.227783203125,1.220703125,-0.091552734375,0.54
163,0.019287109375,-0.08056640625,0.982666015625,2.166748046875,0.9765625,-0.18310546875,0.5433333333333333
164,0.0205078125,-0.088623046875,0.982421875,2.0751953125,1.007080078125,-0.18310546875,0.5466666666666666
165,0.01611328125,-0.085693359375,0.977294921875,2.01416015625,0.946044921875,-0.06103515625,0.55
166,0.022705078125,-0.083984375,0.989013671875,2.197265625,1.03759765625,-0.1220703125,0.5533333333333333
167,0.019775390625,-0.084228515625,0.985595703125,2.197265625,0.8544921875,0.030517578125,0.5566666666666666
168,0.020751953125,-0.0849609375,0.980224609375,2.13623046875,1.068115234375,-0.091552734375,0.56
169,0.019775390625,-0.086181640625,0.981689453125,2.0751953125,0.885009765625,-0.06103515625,0.5633333333333334
170,0.022216796875,-0.080322265625,0.97900390625,1.983642578125,0.8544921875,0.06103515625,0.5666666666666667
171,0.02099609375,-0.08544921875,0.986328125,2.044677734375,0.67138671875,-0.091552734375,0.57
172,0.019287109375,-0.090087890625,0.985107421875,2.197265625,0.91552734375,0.152587890625,0.5733333333333334
173,0.0205078125,-0.08740234375,0.987548828125,2.0751953125,1.0986328125,-0.030517578125,0.5766666666666667
174,0.013671875,-0.09033203125,0.986328125,2.166748046875,0.946044921875,-0.152587890625,0.58
175,0.02001953125,-0.088623046875,0.9873046875,2.166748046875,0.946044921875,-0.030517578125,0.5833333333333334
176,0.01953125,-0.083984375,0.98193359375,2.13623046875,0.885009765625,-0.244140625,0.5866666666666667
177,0.023193359375,-0.08837890625,0.982666015625,2.01416015625,1.03759765625,-0.213623046875,0.59
178,0.017333984375,-0.09375,0.978515625,2.288818359375,0.9765625,-0.06103515625,0.5933333333333334
179,0.022705078125,-0.084228515625,0.9892578125,2.166748046875,1.03759765625,-0.06103515625,0.5966666666666667
180,0.021728515625,-0.083984375,0.987548828125,1.983642578125,0.9765625,-0.091552734375,0.6
181,0.01708984375,-0.07958984375,0.982421875,2.3193359375,1.068115234375,-0.091552734375,0.6033333333333334
182,0.018798828125,-0.08349609375,0.978759765625,2.166748046875,0.946044921875,-0.213623046875,0.6066666666666667
183,0.021240234375,-0.07177734375,0.987548828125,1.983642578125,0.946044921875,0.06103515625,0.61
184,0.0244140625,-0.081298828125,0.980712890625,2.227783203125,1.007080078125,-0.1220703125,0.6133333333333333
185,0.01416015625,-0.087158203125,0.978759765625,2.0751953125,1.007080078125,-0.06103515625,0.6166666666666667
186,0.0205078125,-0.0888671875,0.982421875,2.044677734375,0.946044921875,-0.274658203125,0.62
187,0.01806640625,-0.088134765625,0.984130859375,2.25830078125,0.946044921875,-0.06103515625,0.6233333333333333
188,0.015625,-0.099365234375,0.98388671875,2.044677734375,1.007080078125,-0.06103515625,0.6266666666666667
189,0.02294921875,-0.0927734375,0.983154296875,2.105712890625,0.9765625,-0.091552734375,0.63
190,0.017333984375,-0.084228515625,0.979248046875,2.227783203125,0.946044921875,-0.1220703125,0.6333333333333333
191,0.019287109375,-0.085205078125,0.983154296875,2.166748046875,0.91552734375,-0.06103515625,0.6366666666666667
192,0.021484375,-0.08447265625,0.983642578125,2.197265625,1.15966796875,-0.213623046875,0.64
193,0.022216796875,-0.075439453125,0.984375,2.25830078125,0.885009765625,-0.274658203125,0.6433333333333333
194,0.020751953125,-0.085693359375,0.988525390625,2.01416015625,0.9765625,-0.1220703125,0.6466666666666666
195,0.02392578125,-0.090087890625,0.98388671875,2.105712890625,1.068115234375,-0.06103515625,0.65
196,0.0185546875,-0.08984375,0.979736328125,2.01416015625,0.91552734375,-0.18310546875,0.6533333333333333
197,0.017578125,-0.08447265625,0.989990234375,2.166748046875,0.91552734375,-0.152587890625,0.6566666666666666
198,0.02197265625,-0.08740234375,0.983642578125,1.953125,0.79345703125,0.091552734375,0.66
199,0.01708984375,-0.081787109375,0.984130859375,2.197265625,0.885009765625,-0.06103515625,0.6633333333333333
200,0.01904296875,-0.090576171875,0.983154296875,2.0751953125,1.007080078125,-0.152587890625,0.6666666666666666
201,0.02197265625,-0.085693359375,0.9775390625,1.983642578125,0.9765625,-0.1220703125,0.67
202,0.016845703125,-0.08154296875,0.982421875,2.3193359375,0.91552734375,-0.091552734375,0.6733333333333333
203,0.019287109375,-0.08447265625,0.9873046875,2.25830078125,0.885009765625,-0.030517578125,0.6766666666666666
204,0.017578125,-0.087890625,0.982666015625,2.01416015625,0.823974609375,-0.06103515625,0.68
205,0.020751953125,-0.087646484375,0.980712890625,2.50244140625,0.946044921875,0.030517578125,0.6833333333333333
206,0.018798828125,-0.0888671875,0.97998046875,2.13623046875,0.91552734375,-0.1220703125,0.6866666666666666
207,0.01806640625,-0.075439453125,0.97998046875,2.288818359375,0.946044921875,-0.1220703125,0.69
208,0.017578125,-0.080322265625,0.98681640625,2.105712890625,1.007080078125,-0.1220703125,0.6933333333333334
209,0.023193359375,-0.08154296875,0.984130859375,2.25830078125,0.8544921875,0.030517578125,0.6966666666666667
210,0.02197265625,-0.080810546875,0.9814453125,2.044677734375,0.732421875,-0.030517578125,0.7
211,0.02099609375,-0.08056640625,0.987548828125,2.197265625,0.9765625,0.030517578125,0.7033333333333334
212,0.0185546875,-0.089599609375,0.986328125,2.044677734375,0.91552734375,-0.18310546875,0.7066666666666667
213,0.015625,-0.083251953125,0.976318359375,2.044677734375,0.9765625,-0.1220703125,0.71
214,0.0166015625,-0.08642578125,0.978759765625,2.13623046875,0.946044921875,-0.213623046875,0.7133333333333334
215,0.020751953125,-0.090087890625,0.984619140625,2.197265625,0.823974609375,-0.091552734375,0.7166666666666667
216,0.012939453125,-0.08642578125,0.98681640625,2.13623046875,0.732421875,0.030517578125,0.72
217,0.01318359375,-0.088623046875,0.986083984375,2.197265625,1.129150390625,-0.30517578125,0.7233333333333334
218,0.019287109375,-0.08544921875,0.98291015625,2.105712890625,0.9765625,-0.244140625,0.7266666666666667
219,0.019287109375,-0.08203125,0.984130859375,2.0751953125,0.91552734375,-0.213623046875,0.73
220,0.0146484375,-0.08203125,0.9833984375,2.166748046875,0.885009765625,-0.1220703125,0.7333333333333333
221,0.0224609375,-0.078857421875,0.983154296875,2.13623046875,1.03759765625,-0.152587890625,0.7366666666666667
222,0.017822265625,-0.0869140625,0.98681640625,2.13623046875,1.007080078125,-0.213623046875,0.74
223,0.023193359375,-0.08203125,0.98193359375,2.166748046875,0.9765625,-0.030517578125,0.7433333333333333
224,0.014404296875,-0.078125,0.988525390625,2.227783203125,0.946044921875,-0.1220703125,0.7466666666666667
225,0.028076171875,-0.083251953125,0.981201171875,2.0751953125,0.9765625,-0.152587890625,0.75
226,0.021728515625,-0.07958984375,0.98193359375,2.288818359375,1.03759765625,-0.152587890625,0.7533333333333333
227,0.021240234375,-0.08544921875,0.986328125,2.105712890625,1.007080078125,-0.091552734375,0.7566666666666667
228,0.019775390625,-0.082763671875,0.98291015625,2.044677734375,0.91552734375,0.0,0.76
229,0.019287109375,-0.085205078125,0.986083984375,2.166748046875,0.79345703125,-0.06103515625,0.7633333333333333
230,0.0224609375,-0.07958984375,0.9833984375,1.983642578125,0.91552734375,-0.030517578125,0.7666666666666667
231,0.011474609375,-0.087890625,0.9892578125,2.25830078125,0.91552734375,0.06103515625,0.77
232,0.014892578125,-0.081298828125,0.9814453125,2.13623046875,0.9765625,-0.06103515625,0.7733333333333333
233,0.018310546875,-0.086669921875,0.982421875,2.105712890625,0.8544921875,-0.213623046875,0.7766666666666666
234,0.025634765625,-0.082275390625,0.980224609375,2.227783203125,0.8544921875,0.0,0.78
235,0.020263671875,-0.080322265625,0.984375,2.13623046875,0.762939453125,-0.152587890625,0.7833333333333333
236,0.019287109375,-0.081787109375,0.990234375,2.13623046875,0.762939453125,0.030517578125,0.7866666666666666
237,0.015869140625,-0.08447265625,0.983154296875,2.166748046875,0.823974609375,-0.18310546875,0.79
238,0.019287109375,-0.0859375,0.985595703125,2.227783203125,0.823974609375,0.030517578125,0.7933333333333333
239,0.01416015625,-0.089111328125,0.98291015625,2.105712890625,0.823974609375,-0.030517578125,0.7966666666666666
240,0.015869140625,-0.089111328125,0.98486328125,2.197265625,0.79345703125,-0.1220703125,0.8
241,0.015625,-0.08642578125,0.9833984375,1.983642578125,0.91552734375,0.0,0.8033333333333333
242,0.01904296875,-0.083984375,0.983154296875,1.8310546875,0.91552734375,-0.18310546875,0.8066666666666666
243,0.014404296875,-0.07763671875,0.9833984375,1.983642578125,0.9765625,0.0,0.81
244,0.02099609375,-0.080322265625,0.981689453125,2.227783203125,0.946044921875,-0.152587890625,0.8133333333333334
245,0.0234375,-0.07958984375,0.987548828125,2.0751953125,0.91552734375,0.1220703125,0.8166666666666667
246,0.019775390625,-0.08544921875,0.982666015625,2.105712890625,0.9765625,-0.152587890625,0.82
247,0.023193359375,-0.08251953125,0.98486328125,2.166748046875,0.79345703125,-0.1220703125,0.8233333333333334
248,0.014892578125,-0.08740234375,0.981201171875,2.166748046875,1.129150390625,-0.091552734375,0.8266666666666667
249,0.021240234375,-0.089111328125,0.978271484375,2.0751953125,1.007080078125,-0.213623046875,0.83
250,0.015625,-0.09033203125,0.981201171875,2.0751953125,0.91552734375,-0.091552734375,0.8333333333333334
251,0.016845703125,-0.073974609375,0.984619140625,2.3193359375,1.068115234375,-0.213623046875,0.8366666666666667
252,0.0107421875,-0.083984375,0.984130859375,2.044677734375,0.8544921875,0.1220703125,0.84
253,0.01513671875,-0.082763671875,0.987548828125,2.044677734375,1.007080078125,-0.274658203125,0.8433333333333334
254,0.021728515625,-0.077392578125,0.98388671875,2.25830078125,1.0986328125,-0.18310546875,0.8466666666666667
255,0.0234375,-0.076904296875,0.981689453125,2.25830078125,0.946044921875,0.06103515625,0.85
256,0.01708984375,-0.092041015625,0.980712890625,2.166748046875,0.8544921875,-0.152587890625,0.8533333333333334
257,0.014892578125,-0.097900390625,0.978515625,2.0751953125,0.885009765625,-0.1220703125,0.8566666666666667
258,0.023681640625,-0.0830078125,0.978271484375,2.227783203125,1.03759765625,-0.06103515625,0.86
259,0.0185546875,-0.085205078125,0.977294921875,1.983642578125,0.946044921875,-0.06103515625,0.8633333333333333
260,0.015625,-0.088134765625,0.98583984375,2.044677734375,0.9765625,-0.091552734375,0.8666666666666667
261,0.018310546875,-0.079833984375,0.984375,2.166748046875,0.8544921875,-0.091552734375,0.87
262,0.020263671875,-0.08203125,0.986083984375,2.105712890625,0.946044921875,-0.274658203125,0.8733333333333333
263,0.019287109375,-0.08642578125,0.98583984375,2.01416015625,0.885009765625,-0.152587890625,0.8766666666666667
264,0.013671875,-0.081298828125,0.982177734375,2.288818359375,1.007080078125,-0.06103515625,0.88
265,0.021484375,-0.089111328125,0.9765625,1.983642578125,0.823974609375,-0.030517578125,0.8833333333333333
266,0.018798828125,-0.090576171875,0.9853515625,2.288818359375,1.129150390625,0.0,0.8866666666666667
267,0.020263671875,-0.089599609375,0.98974609375,2.288818359375,0.885009765625,-0.18310546875,0.89
268,0.0224609375,-0.078125,0.986083984375,2.166748046875,0.823974609375,-0.18310546875,0.8933333333333333
269,0.02099609375,-0.085205078125,0.98193359375,2.197265625,0.946044921875,-0.06103515625,0.8966666666666666
270,0.01611328125,-0.07958984375,0.9794921875,2.01416015625,1.007080078125,-0.030517578125,0.9
271,0.017822265625,-0.0869140625,0.976318359375,2.105712890625,0.823974609375,-0.213623046875,0.9033333333333333
272,0.021484375,-0.086181640625,0.984375,2.349853515625,0.885009765625,-0.213623046875,0.9066666666666666
273,0.020751953125,-0.09228515625,0.984619140625,2.197265625,1.15966796875,-0.06103515625,0.91
274,0.029541015625,-0.091796875,0.9794921875,2.13623046875,1.03759765625,-0.18310546875,0.9133333333333333
275,0.018310546875,-0.083740234375,0.98291015625,2.044677734375,0.946044921875,-0.1220703125,0.9166666666666666
276,0.01904296875,-0.080078125,0.98193359375,2.166748046875,0.946044921875,-0.06103515625,0.92
277,0.017822265625,-0.08984375,0.98388671875,2.166748046875,1.007080078125,-0.1220703125,0.9233333333333333
278,0.018798828125,-0.078369140625,0.9833984375,2.13623046875,0.823974609375,-0.244140625,0.9266666666666666
279,0.020751953125,-0.09375,0.98193359375,2.13623046875,1.03759765625,-0.213623046875,0.93
280,0.023681640625,-0.084228515625,0.98193359375,2.0751953125,1.007080078125,-0.06103515625,0.9333333333333333
281,0.019287109375,-0.083984375,0.9775390625,2.044677734375,0.946044921875,0.0,0.9366666666666666
282,0.0205078125,-0.086181640625,0.976318359375,2.105712890625,0.9765625,-0.152587890625,0.94
283,0.023193359375,-0.0849609375,0.9833984375,2.197265625,1.007080078125,-0.030517578125,0.9433333333333334
284,0.01220703125,-0.078857421875,0.98095703125,2.13623046875,0.8544921875,-0.06103515625,0.9466666666666667
285,0.018310546875,-0.088134765625,0.98583984375,2.166748046875,0.9765625,-0.1220703125,0.95
286,0.0166015625,-0.087158203125,0.98388671875,2.288818359375,1.007080078125,0.0,0.9533333333333334
287,0.014892578125,-0.076171875,0.982421875,2.227783203125,1.068115234375,-0.18310546875,0.9566666666666667
288,0.020751953125,-0.086669921875,0.99169921875,2.105712890625,0.885009765625,0.0,0.96
289,0.013671875,-0.08642578125,0.977294921875,2.166748046875,0.9765625,-0.091552734375,0.9633333333333334
290,0.01611328125,-0.081787109375,0.976318359375,2.13623046875,0.9765625,-0.152587890625,0.9666666666666667
291,0.013427734375,-0.086669921875,0.978759765625,2.197265625,1.15966796875,-0.091552734375,0.97
292,0.02099609375,-0.077392578125,0.9814453125,2.13623046875,1.0986328125,-0.06103515625,0.9733333333333334
293,0.018798828125,-0.08154296875,0.9873046875,2.044677734375,1.190185546875,0.0,0.9766666666666667
294,0.013671875,-0.087890625,0.996337890625,2.166748046875,1.068115234375,-0.152587890625,0.98
295,0.01904296875,-0.082275390625,0.986572265625,1.983642578125,0.8544921875,-0.213623046875,0.9833333333333333
296,0.019287109375,-0.08349609375,0.9814453125,2.13623046875,0.8544921875,0.091552734375,0.9866666666666667
297,0.020263671875,-0.0830078125,0.98583984375,2.13623046875,0.9765625,-0.213623046875,0.99
298,0.017333984375,-0.087158203125,0.97900390625,2.13623046875,0.91552734375,0.06103515625,0.9933333333333333
299,0.012451171875,-0.08544921875,0.97998046875,2.01416015625,1.0986328125,0.0,0.9966666666666667
300,0.019287109375,-0.087646484375,0.982177734375,2.227783203125,0.91552734375,0.030517578125,1.0
301,0.023193359375,-0.0849609375,0.98095703125,2.227783203125,0.91552734375,-0.1220703125,1.0033333333333334
302,0.020263671875,-0.083740234375,0.978515625,2.288818359375,1.03759765625,-0.030517578125,1.0066666666666666
303,0.019775390625,-0.08203125,0.98828125,2.0751953125,1.007080078125,-0.06103515625,1.01
304,0.024169921875,-0.080078125,0.98388671875,2.105712890625,0.946044921875,-0.091552734375,1.0133333333333334
305,0.02099609375,-0.083740234375,0.984130859375,2.288818359375,1.03759765625,-0.244140625,1.0166666666666666
306,0.021728515625,-0.086181640625,0.985595703125,2.3193359375,1.007080078125,-0.06103515625,1.02
307,0.013916015625,-0.08642578125,0.981201171875,2.0751953125,0.823974609375,-0.091552734375,1.0233333333333334
308,0.022216796875,-0.07666015625,0.977783203125,2.105712890625,1.0986328125,-0.213623046875,1.0266666666666666
309,0.0166015625,-0.08349609375,0.986328125,2.227783203125,0.946044921875,0.1220703125,1.03
310,0.024658203125,-0.090576171875,0.984130859375,2.3193359375,0.91552734375,-0.030517578125,1.0333333333333334
311,0.015869140625,-0.08544921875,0.9794921875,2.0751953125,1.190185546875,-0.1220703125,1.0366666666666666
312,0.01708984375,-0.083251953125,0.98388671875,2.166748046875,1.068115234375,-0.213623046875,1.04
313,0.022216796875,-0.082763671875,0.98583984375,2.227783203125,0.946044921875,-0.091552734375,1.0433333333333332
314,0.02197265625,-0.08251953125,0.988037109375,2.105712890625,1.068115234375,-0.030517578125,1.0466666666666666
315,0.01953125,-0.096435546875,0.98974609375,2.197265625,0.79345703125,-0.030517578125,1.05
316,0.017822265625,-0.082763671875,0.97705078125,2.105712890625,1.007080078125,-0.091552734375,1.0533333333333332
317,0.01806640625,-0.08447265625,0.987060546875,2.197265625,0.946044921875,-0.335693359375,1.0566666666666666
318,0.01806640625,-0.087158203125,0.988037109375,2.13623046875,1.129150390625,-0.091552734375,1.06
319,0.0224609375,-0.088623046875,0.9873046875,2.0751953125,0.823974609375,-0.030517578125,1.0633333333333332
320,0.0234375,-0.082275390625,0.97998046875,2.197265625,1.129150390625,-0.152587890625,1.0666666666666667
321,0.016845703125,-0.086669921875,0.978271484375,2.0751953125,0.91552734375,0.0,1.07
322,0.015380859375,-0.09423828125,0.97216796875,2.13623046875,0.946044921875,-0.06103515625,1.0733333333333333
323,0.017822265625,-0.0888671875,0.981201171875,2.227783203125,0.946044921875,-0.152587890625,1.0766666666666667
324,0.018798828125,-0.084228515625,0.9853515625,2.13623046875,1.007080078125,-0.1220703125,1.08
325,0.024658203125,-0.08740234375,0.98828125,2.166748046875,0.885009765625,-0.06103515625,1.0833333333333333
326,0.015869140625,-0.08837890625,0.984375,2.0751953125,1.007080078125,-0.1220703125,1.0866666666666667
327,0.018798828125,-0.085205078125,0.984619140625,2.13623046875,0.823974609375,-0.091552734375,1.09
328,0.01806640625,-0.08837890625,0.98046875,2.25830078125,1.03759765625,-0.18310546875,1.0933333333333333
329,0.017578125,-0.090087890625,0.98095703125,2.105712890625,0.9765625,-0.030517578125,1.0966666666666667
330,0.018798828125,-0.087646484375,0.98974609375,2.166748046875,1.03759765625,0.0,1.1
331,0.021240234375,-0.083984375,0.9794921875,2.25830078125,1.068115234375,-0.213623046875,1.1033333333333333
332,0.01904296875,-0.07958984375,0.98291015625,2.227783203125,1.190185546875,0.0,1.1066666666666667
333,0.021728515625,-0.086181640625,0.9814453125,1.983642578125,0.823974609375,-0.030517578125,1.11
334,0.012939453125,-0.088623046875,0.9775390625,2.288818359375,0.9765625,-0.152587890625,1.1133333333333333
335,0.02294921875,-0.074951171875,0.987060546875,2.105712890625,0.762939453125,0.244140625,1.1166666666666667
336,0.02099609375,-0.083251953125,0.986572265625,2.25830078125,1.0986328125,-0.152587890625,1.12
337,0.017578125,-0.091796875,0.9873046875,2.044677734375,0.946044921875,-0.06103515625,1.1233333333333333
338,0.0205078125,-0.08837890625,0.982177734375,2.044677734375,1.007080078125,-0.030517578125,1.1266666666666667
339,0.013427734375,-0.07568359375,0.98095703125,2.349853515625,1.03759765625,0.0,1.13
340,0.016357421875,-0.093994140625,0.987060546875,2.105712890625,0.8544921875,-0.244140625,1.1333333333333333
341,0.017822265625,-0.093017578125,0.980224609375,2.13623046875,1.007080078125,0.0,1.1366666666666667
342,0.0166015625,-0.085693359375,0.979736328125,2.288818359375,1.068115234375,0.030517578125,1.14
343,0.01708984375,-0.08203125,0.991455078125,1.708984375,0.885009765625,-0.091552734375,1.1433333333333333
344,0.02001953125,-0.060791015625,1.0341796875,1.861572265625,1.007080078125,0.0,1.1466666666666667
345,0.009521484375,-0.089111328125,0.92041015625,2.01416015625,0.8544921875,0.0,1.15
346,0.021240234375,-0.069580078125,1.03662109375,2.044677734375,0.885009765625,-0.06103515625,1.1533333333333333
347,0.015380859375,-0.09423828125,0.940185546875,2.227783203125,0.8544921875,-0.091552734375,1.1566666666666667
348,0.0185546875,-0.076171875,0.992919921875,2.0751953125,1.251220703125,-0.030517578125,1.16
349,0.02001953125,-0.09375,0.98046875,2.227783203125,0.9765625,-0.091552734375,1.1633333333333333
350,0.0224609375,-0.083984375,0.976318359375,2.01416015625,1.03759765625,-0.06103515625,1.1666666666666667
351,0.020751953125,-0.083984375,0.9970703125,2.105712890625,0.732421875,-0.213623046875,1.17
352,0.021484375,-0.0859375,0.962158203125,2.25830078125,0.732421875,-0.18310546875,1.1733333333333333
353,0.021484375,-0.078857421875,1.010009765625,1.983642578125,1.251220703125,0.1220703125,1.1766666666666667
354,0.0166015625,-0.087158203125,0.974853515625,2.197265625,0.823974609375,-0.152587890625,1.18
355,0.024169921875,-0.087158203125,0.997802734375,2.197265625,0.946044921875,-0.30517578125,1.1833333333333333
356,0.01953125,-0.086669921875,0.974609375,2.105712890625,0.91552734375,-0.18310546875,1.1866666666666668
357,0.019287109375,-0.085693359375,0.977783203125,2.01416015625,0.823974609375,-0.244140625,1.19
358,0.015380859375,-0.085693359375,0.994873046875,2.0751953125,1.15966796875,0.091552734375,1.1933333333333334
359,0.0166015625,-0.093505859375,0.971435546875,2.0751953125,0.823974609375,-0.06103515625,1.1966666666666668
360,0.020263671875,-0.08203125,0.998779296875,2.25830078125,0.946044921875,-0.335693359375,1.2
361,0.017578125,-0.08642578125,0.982666015625,2.3193359375,1.15966796875,-0.030517578125,1.2033333333333334
362,0.021484375,-0.086181640625,0.987060546875,2.01416015625,0.8544921875,-0.030517578125,1.2066666666666668
363,0.0166015625,-0.0869140625,0.982177734375,2.166748046875,1.03759765625,-0.335693359375,1.21
364,0.021484375,-0.087158203125,0.97705078125,2.227783203125,1.03759765625,-0.06103515625,1.2133333333333334
365,0.021240234375,-0.086181640625,0.98681640625,2.197265625,0.885009765625,-0.091552734375,1.2166666666666666
366,0.0126953125,-0.093994140625,0.978515625,2.0751953125,0.946044921875,-0.213623046875,1.22
367,0.0146484375,-0.091064453125,0.98681640625,2.0751953125,0.762939453125,0.0,1.2233333333333334
368,0.022216796875,-0.0859375,0.97900390625,2.13623046875,1.068115234375,-0.06103515625,1.2266666666666666
369,0.021240234375,-0.086181640625,0.981201171875,2.227783203125,0.9765625,-0.18310546875,1.23
370,0.01513671875,-0.0830078125,0.982421875,2.197265625,0.79345703125,-0.152587890625,1.2333333333333334
371,0.0234375,-0.093994140625,0.98046875,2.349853515625,1.068115234375,-0.335693359375,1.2366666666666666
372,0.020263671875,-0.093505859375,0.9873046875,2.044677734375,1.190185546875,-0.152587890625,1.24
373,0.01953125,-0.08984375,0.982177734375,2.288818359375,0.701904296875,-0.1220703125,1.2433333333333334
374,0.020263671875,-0.085693359375,0.98193359375,2.044677734375,1.0986328125,-0.06103515625,1.2466666666666666
375,0.013671875,-0.079833984375,0.9853515625,1.953125,0.823974609375,-0.18310546875,1.25
376,0.02294921875,-0.090087890625,0.986572265625,2.197265625,0.885009765625,-0.06103515625,1.2533333333333334
377,0.019287109375,-0.0908203125,0.984375,2.13623046875,0.9765625,-0.030517578125,1.2566666666666666
378,0.013671875,-0.08203125,0.982666015625,2.166748046875,0.823974609375,-0.030517578125,1.26
379,0.019775390625,-0.083740234375,0.98291015625,2.0751953125,0.9765625,-0.18310546875,1.2633333333333334
380,0.013671875,-0.0830078125,0.98583984375,2.25830078125,1.129150390625,-0.213623046875,1.2666666666666666
381,0.015380859375,-0.082763671875,0.98046875,2.166748046875,1.007080078125,-0.1220703125,1.27
382,0.019775390625,-0.083740234375,0.974609375,2.044677734375,0.823974609375,0.091552734375,1.2733333333333334
383,0.01953125,-0.08203125,0.98046875,2.105712890625,0.946044921875,-0.091552734375,1.2766666666666666
384,0.02294921875,-0.09375,0.98193359375,2.01416015625,1.007080078125,-0.091552734375,1.28
385,0.023681640625,-0.080322265625,0.98779296875,2.227783203125,0.91552734375,-0.1220703125,1.2833333333333334
386,0.026611328125,-0.08154296875,0.98291015625,2.13623046875,1.28173828125,-0.1220703125,1.2866666666666666
387,0.018310546875,-0.086181640625,0.980712890625,2.25830078125,0.946044921875,-0.1220703125,1.29
388,0.019775390625,-0.08447265625,0.986328125,2.13623046875,0.946044921875,-0.18310546875,1.2933333333333332
389,0.020263671875,-0.08642578125,0.987548828125,2.0751953125,0.946044921875,-0.152587890625,1.2966666666666666
390,0.01708984375,-0.085693359375,0.982421875,2.13623046875,0.91552734375,0.030517578125,1.3
391,0.01904296875,-0.076171875,0.98876953125,2.105712890625,0.9765625,-0.06103515625,1.3033333333333332
392,0.02099609375,-0.082275390625,0.985107421875,2.166748046875,0.91552734375,-0.213623046875,1.3066666666666666
393,0.011474609375,-0.083740234375,0.9814453125,2.166748046875,1.0986328125,-0.030517578125,1.31
394,0.02490234375,-0.085205078125,0.9833984375,2.0751953125,0.946044921875,-0.152587890625,1.3133333333333332
395,0.020751953125,-0.080810546875,0.98193359375,2.166748046875,0.9765625,0.0,1.3166666666666667
396,0.017822265625,-0.083251953125,0.98828125,2.13623046875,0.946044921875,-0.213623046875,1.32
397,0.017822265625,-0.079345703125,0.986572265625,2.166748046875,1.007080078125,-0.152587890625,1.3233333333333333
398,0.0234375,-0.090087890625,0.97998046875,2.0751953125,0.79345703125,-0.06103515625,1.3266666666666667
399,0.022216796875,-0.087890625,0.98681640625,1.983642578125,0.946044921875,-0.152587890625,1.33
400,0.014404296875,-0.086669921875,0.9775390625,2.0751953125,0.9765625,-0.06103515625,1.3333333333333333
401,0.015380859375,-0.083984375,0.982421875,2.105712890625,0.823974609375,-0.06103515625,1.3366666666666667
402,0.014404296875,-0.0859375,0.9833984375,2.288818359375,0.9765625,0.091552734375,1.34
403,0.022705078125,-0.0859375,0.9892578125,2.13623046875,0.8544921875,-0.1220703125,1.3433333333333333
404,0.01611328125,-0.084716796875,0.984375,2.197265625,1.068115234375,-0.1220703125,1.3466666666666667
405,0.02001953125,-0.089599609375,0.985595703125,2.25830078125,1.007080078125,0.0,1.35
406,0.025146484375,-0.088623046875,0.979736328125,2.13623046875,0.9765625,-0.1220703125,1.3533333333333333
407,0.020263671875,-0.085693359375,0.9873046875,2.227783203125,1.0986328125,-0.06103515625,1.3566666666666667
408,0.021240234375,-0.08642578125,0.981201171875,2.166748046875,1.129150390625,0.030517578125,1.36
409,0.017578125,-0.082763671875,0.987060546875,2.288818359375,0.8544921875,0.0,1.3633333333333333
410,0.025146484375,-0.076416015625,0.982666015625,2.01416015625,1.007080078125,-0.06103515625,1.3666666666666667
411,0.013916015625,-0.091064453125,0.98291015625,2.227783203125,0.9765625,-0.091552734375,1.37
412,0.019287109375,-0.087158203125,0.975341796875,2.25830078125,0.9765625,-0.244140625,1.3733333333333333
413,0.019287109375,-0.081298828125,0.982177734375,2.197265625,0.91552734375,0.030517578125,1.3766666666666667
414,0.01513671875,-0.07373046875,0.979248046875,2.197265625,0.885009765625,-0.18310546875,1.38
415,0.01904296875,-0.076904296875,0.981201171875,2.0751953125,0.9765625,-0.152587890625,1.3833333333333333
416,0.022705078125,-0.081298828125,0.990478515625,2.197265625,1.007080078125,-0.030517578125,1.3866666666666667
417,0.02099609375,-0.09033203125,0.983154296875,2.197265625,0.91552734375,-0.091552734375,1.39
418,0.02099609375,-0.078369140625,0.985595703125,2.0751953125,1.007080078125,-0.152587890625,1.3933333333333333
419,0.01513671875,-0.08740234375,0.986083984375,2.044677734375,0.91552734375,-0.152587890625,1.3966666666666667
420,0.014892578125,-0.085693359375,0.98486328125,2.197265625,1.03759765625,-0.244140625,1.4
421,0.019775390625,-0.084716796875,0.984130859375,2.197265625,0.8544921875,-0.1220703125,1.4033333333333333
422,0.019287109375,-0.08740234375,0.982421875,2.105712890625,1.068115234375,-0.244140625,1.4066666666666667
423,0.019287109375,-0.09228515625,0.976318359375,2.227783203125,0.946044921875,0.030517578125,1.41
424,0.017333984375,-0.087158203125,0.982421875,1.922607421875,0.823974609375,-0.1220703125,1.4133333333333333
425,0.019775390625,-0.084228515625,0.98779296875,2.13623046875,1.0986328125,-0.091552734375,1.4166666666666667
426,0.015625,-0.086669921875,0.985107421875,2.197265625,0.823974609375,-0.274658203125,1.42
427,0.02294921875,-0.083740234375,0.9765625,2.25830078125,0.9765625,-0.091552734375,1.4233333333333333
428,0.015380859375,-0.08544921875,0.98291015625,1.983642578125,0.91552734375,-0.18310546875,1.4266666666666667
429,0.018310546875,-0.07861328125,0.98876953125,2.197265625,1.0986328125,-0.1220703125,1.43
430,0.0185546875,-0.08837890625,0.984130859375,2.105712890625,0.91552734375,-0.030517578125,1.4333333333333333
431,0.01513671875,-0.083984375,0.984130859375,2.105712890625,1.007080078125,-0.244140625,1.4366666666666668
432,0.018310546875,-0.084716796875,0.980224609375,2.166748046875,0.9765625,-0.1220703125,1.44
433,0.016845703125,-0.0908203125,0.98486328125,2.0751953125,1.0986328125,-0.06103515625,1.4433333333333334
434,0.0234375,-0.086181640625,0.983154296875,2.166748046875,1.007080078125,-0.091552734375,1.4466666666666668
435,0.01220703125,-0.08740234375,0.98388671875,2.044677734375,0.9765625,-0.18310546875,1.45
436,0.019775390625,-0.093505859375,0.98583984375,2.166748046875,0.823974609375,-0.18310546875,1.4533333333333334
437,0.020751953125,-0.085205078125,0.984375,2.105712890625,1.007080078125,0.091552734375,1.4566666666666668
438,0.02294921875,-0.088623046875,0.9775390625,1.983642578125,1.007080078125,-0.18310546875,1.46
439,0.023681640625,-0.07861328125,0.987548828125,2.0751953125,0.732421875,-0.06103515625,1.4633333333333334
440,0.02099609375,-0.093505859375,0.98486328125,2.166748046875,0.885009765625,-0.1220703125,1.4666666666666666
441,0.015380859375,-0.08447265625,0.980712890625,2.13623046875,0.9765625,-0.18310546875,1.47
442,0.015625,-0.081787109375,0.988037109375,1.953125,0.885009765625,-0.06103515625,1.4733333333333334
443,0.020263671875,-0.089111328125,0.978271484375,2.25830078125,0.946044921875,-0.152587890625,1.4766666666666666
444,0.021484375,-0.0830078125,0.988037109375,2.197265625,1.068115234375,-0.152587890625,1.48
445,0.023681640625,-0.085693359375,0.9892578125,2.288818359375,0.9765625,-0.152587890625,1.4833333333333334
446,0.017822265625,-0.0810546875,0.9853515625,2.105712890625,0.946044921875,-0.030517578125,1.4866666666666666
447,0.0224609375,-0.083740234375,0.984130859375,2.105712890625,1.068115234375,-0.244140625,1.49
448,0.015380859375,-0.08837890625,0.985107421875,2.105712890625,0.91552734375,-0.1220703125,1.4933333333333334
449,0.018310546875,-0.0830078125,0.98388671875,2.166748046875,0.946044921875,-0.030517578125,1.4966666666666666
450,0.023193359375,-0.0810546875,0.983154296875,2.166748046875,1.007080078125,-0.274658203125,1.5
451,0.01806640625,-0.085693359375,0.983154296875,2.044677734375,1.03759765625,-0.213623046875,1.5033333333333334
452,0.0244140625,-0.086669921875,0.983154296875,2.044677734375,0.8544921875,0.091552734375,1.5066666666666666
453,0.026123046875,-0.090576171875,0.987060546875,2.0751953125,0.8544921875,-0.091552734375,1.51
454,0.021728515625,-0.0859375,0.984375,2.288818359375,1.03759765625,0.0,1.5133333333333334
455,0.01318359375,-0.091064453125,0.9833984375,1.983642578125,0.9765625,-0.030517578125,1.5166666666666666
456,0.01708984375,-0.09130859375,0.98046875,2.25830078125,1.251220703125,-0.152587890625,1.52
457,0.022705078125,-0.095458984375,0.984375,2.13623046875,0.8544921875,-0.030517578125,1.5233333333333334
458,0.0263671875,-0.08056640625,0.9873046875,2.288818359375,0.8544921875,-0.091552734375,1.5266666666666666
459,0.024169921875,-0.08349609375,0.9833984375,1.983642578125,1.03759765625,-0.152587890625,1.53
460,0.01708984375,-0.084716796875,0.984375,2.288818359375,0.823974609375,-0.244140625,1.5333333333333334
461,0.023681640625,-0.077880859375,0.985595703125,2.105712890625,0.885009765625,-0.1220703125,1.5366666666666666
462,0.02392578125,-0.082763671875,0.987060546875,2.197265625,1.007080078125,-0.091552734375,1.54
463,0.014892578125,-0.0859375,0.981201171875,2.349853515625,0.946044921875,-0.091552734375,1.5433333333333332
464,0.02294921875,-0.08251953125,0.984130859375,2.227783203125,0.823974609375,-0.06103515625,1.5466666666666666
465,0.01953125,-0.089599609375,0.984619140625,1.983642578125,0.885009765625,-0.30517578125,1.55
466,0.01416015625,-0.081787109375,0.988037109375,2.288818359375,0.946044921875,-0.1220703125,1.5533333333333332
467,0.02490234375,-0.083251953125,0.980712890625,2.044677734375,1.007080078125,-0.30517578125,1.5566666666666666
468,0.025390625,-0.083984375,0.978271484375,2.01416015625,0.91552734375,-0.152587890625,1.56
469,0.02197265625,-0.08544921875,0.979736328125,2.13623046875,0.732421875,-0.18310546875,1.5633333333333332
470,0.021728515625,-0.08544921875,0.97998046875,2.197265625,0.946044921875,-0.18310546875,1.5666666666666667
471,0.015625,-0.081298828125,0.977294921875,2.105712890625,1.0986328125,-0.091552734375,1.57
472,0.0166015625,-0.087646484375,0.98291015625,2.227783203125,1.15966796875,0.0,1.5733333333333333
473,0.017822265625,-0.084228515625,0.988525390625,2.166748046875,0.732421875,0.0,1.5766666666666667
474,0.021484375,-0.082275390625,0.976318359375,2.38037109375,0.9765625,-0.18310546875,1.58
475,0.016357421875,-0.08837890625,0.989990234375,2.166748046875,1.068115234375,-0.1220703125,1.5833333333333333
476,0.017578125,-0.087158203125,0.98779296875,2.227783203125,1.03759765625,-0.091552734375,1.5866666666666667
477,0.01904296875,-0.082275390625,0.98583984375,2.197265625,0.91552734375,-0.152587890625,1.59
478,0.01904296875,-0.08203125,0.9794921875,2.227783203125,0.823974609375,-0.152587890625,1.5933333333333333
479,0.02490234375,-0.08544921875,0.980224609375,2.166748046875,1.0986328125,0.06103515625,1.5966666666666667
480,0.021728515625,-0.074951171875,0.98095703125,2.166748046875,0.91552734375,0.0,1.6
481,0.021728515625,-0.07958984375,0.980712890625,2.197265625,0.732421875,-0.1220703125,1.6033333333333333
482,0.024658203125,-0.080810546875,0.98291015625,2.197265625,1.220703125,-0.152587890625,1.6066666666666667
483,0.01708984375,-0.08203125,0.98583984375,1.983642578125,0.8544921875,0.0,1.61
484,0.02197265625,-0.0791015625,0.98583984375,2.197265625,1.007080078125,-0.18310546875,1.6133333333333333
485,0.016845703125,-0.080322265625,0.988525390625,2.197265625,1.007080078125,-0.274658203125,1.6166666666666667
486,0.01513671875,-0.085693359375,0.983642578125,2.13623046875,0.946044921875,-0.06103515625,1.62
487,0.01904296875,-0.08251953125,0.98486328125,2.01416015625,1.190185546875,-0.213623046875,1.6233333333333333
488,0.02099609375,-0.090087890625,0.978515625,2.105712890625,0.946044921875,-0.06103515625,1.6266666666666667
489,0.018310546875,-0.084716796875,0.982421875,2.166748046875,0.823974609375,-0.030517578125,1.63
490,0.019287109375,-0.083251953125,0.984375,2.13623046875,1.15966796875,-0.213623046875,1.6333333333333333
491,0.023681640625,-0.086669921875,0.984619140625,2.01416015625,1.03759765625,0.0,1.6366666666666667
492,0.017578125,-0.0849609375,0.979736328125,2.3193359375,0.885009765625,-0.18310546875,1.64
493,0.017333984375,-0.087890625,0.986328125,2.13623046875,1.129150390625,-0.030517578125,1.6433333333333333
494,0.024658203125,-0.086181640625,0.982421875,1.983642578125,1.007080078125,0.18310546875,1.6466666666666667
495,0.0185546875,-0.084716796875,0.98486328125,2.3193359375,0.8544921875,0.0,1.65
496,0.017822265625,-0.079833984375,0.984375,2.349853515625,0.762939453125,-0.030517578125,1.6533333333333333
497,0.027587890625,-0.105712890625,0.971435546875,1.922607421875,1.5869140625,-0.213623046875,1.6566666666666667
498,0.014892578125,-0.097412109375,0.908447265625,2.50244140625,0.0,0.030517578125,1.66
499,0.023681640625,-0.0830078125,1.023193359375,1.922607421875,1.800537109375,-0.030517578125,1.6633333333333333
500,0.015869140625,-0.091796875,0.988525390625,2.227783203125,0.152587890625,-0.274658203125,1.6666666666666667
501,0.020751953125,-0.075439453125,0.9931640625,2.166748046875,1.40380859375,0.06103515625,1.67
502,0.01806640625,-0.08544921875,0.995849609375,2.166748046875,0.640869140625,-0.213623046875,1.6733333333333333
503,0.02392578125,-0.088623046875,0.967529296875,2.349853515625,1.129150390625,0.030517578125,1.6766666666666667
504,0.019775390625,-0.088623046875,0.996337890625,2.13623046875,0.946044921875,-0.213623046875,1.68
505,0.010986328125,-0.088623046875,0.960693359375,2.410888671875,0.6103515625,0.0,1.6833333333333333
506,0.022705078125,-0.0859375,0.970703125,2.13623046875,1.373291015625,-0.030517578125,1.6866666666666668
507,0.020263671875,-0.089599609375,0.983642578125,2.166748046875,0.48828125,0.030517578125,1.69
508,0.017333984375,-0.0849609375,0.989990234375,2.197265625,1.068115234375,-0.213623046875,1.6933333333333334
509,0.020751953125,-0.08740234375,0.987060546875,2.01416015625,0.946044921875,0.06103515625,1.6966666666666668
510,0.019287109375,-0.089111328125,0.988037109375,2.197265625,0.8544921875,-0.152587890625,1.7
511,0.020263671875,-0.084716796875,0.990966796875,2.25830078125,1.129150390625,0.030517578125,1.7033333333333334
512,0.0244140625,-0.09765625,0.976318359375,2.197265625,0.8544921875,0.0,1.7066666666666668
513,0.021728515625,-0.076416015625,0.983154296875,2.044677734375,1.220703125,-0.030517578125,1.71
514,0.021484375,-0.08984375,0.9853515625,2.25830078125,0.8544921875,-0.18310546875,1.7133333333333334
515,0.025634765625,-0.083251953125,0.988037109375,2.25830078125,0.91552734375,-0.030517578125,1.7166666666666666
516,0.02001953125,-0.08935546875,0.988037109375,2.0751953125,0.9765625,-0.1220703125,1.72
517,0.02099609375,-0.077880859375,0.979248046875,2.197265625,0.8544921875,-0.244140625,1.7233333333333334
518,0.02001953125,-0.087890625,0.9853515625,2.044677734375,0.9765625,-0.30517578125,1.7266666666666666
519,0.018310546875,-0.084716796875,0.986572265625,2.25830078125,1.007080078125,0.1220703125,1.73
520,0.016845703125,-0.0830078125,0.97802734375,2.288818359375,0.823974609375,-0.030517578125,1.7333333333333334
521,0.02294921875,-0.085205078125,0.984619140625,2.13623046875,1.007080078125,-0.06103515625,1.7366666666666666
522,0.021240234375,-0.08349609375,0.988037109375,2.197265625,0.91552734375,-0.18310546875,1.74
523,0.019775390625,-0.085693359375,0.983642578125,2.25830078125,0.8544921875,-0.1220703125,1.7433333333333334
524,0.018310546875,-0.081787109375,0.985595703125,2.13623046875,0.9765625,-0.06103515625,1.7466666666666666
525,0.021484375,-0.080322265625,0.98291015625,2.044677734375,0.91552734375,-0.091552734375,1.75
526,0.012939453125,-0.086181640625,0.986572265625,2.410888671875,0.91552734375,-0.091552734375,1.7533333333333334
527,0.018798828125,-0.08154296875,0.988525390625,2.105712890625,1.0986328125,-0.091552734375,1.7566666666666666
528,0.0107421875,-0.084716796875,0.990234375,2.044677734375,0.8544921875,-0.1220703125,1.76
529,0.01708984375,-0.092041015625,0.980712890625,2.227783203125,0.885009765625,-0.1220703125,1.7633333333333334
530,0.020263671875,-0.080810546875,0.986572265625,2.166748046875,1.068115234375,-0.1220703125,1.7666666666666666
531,0.022216796875,-0.08203125,0.979736328125,2.25830078125,0.8544921875,0.0,1.77
532,0.0224609375,-0.087158203125,0.98193359375,1.89208984375,0.946044921875,-0.18310546875,1.7733333333333334
533,0.01416015625,-0.084228515625,0.9853515625,2.166748046875,1.03759765625,-0.030517578125,1.7766666666666666
534,0.01806640625,-0.083984375,0.985595703125,1.953125,0.946044921875,0.030517578125,1.78
535,0.020263671875,-0.08935546875,0.978515625,2.105712890625,1.03759765625,0.091552734375,1.7833333333333334
536,0.02099609375,-0.09130859375,0.97802734375,2.227783203125,0.732421875,-0.030517578125,1.7866666666666666
537,0.021240234375,-0.083984375,0.985595703125,2.25830078125,0.9765625,-0.091552734375,1.79
538,0.013671875,-0.085205078125,0.985595703125,2.166748046875,0.91552734375,0.213623046875,1.7933333333333332
539,0.0283203125,-0.08837890625,0.98388671875,2.01416015625,0.91552734375,-0.091552734375,1.7966666666666666
540,0.015869140625,-0.07861328125,0.979736328125,2.197265625,1.15966796875,-0.030517578125,1.8
541,0.022705078125,-0.089599609375,0.98876953125,2.197265625,0.946044921875,-0.152587890625,1.8033333333333332
542,0.01416015625,-0.091796875,0.984130859375,2.166748046875,1.007080078125,-0.213623046875,1.8066666666666666
543,0.02001953125,-0.0849609375,0.984619140625,2.044677734375,0.8544921875,-0.18310546875,1.81
544,0.02197265625,-0.09228515625,0.97998046875,2.227783203125,0.946044921875,0.030517578125,1.8133333333333332
545,0.01806640625,-0.0859375,0.980712890625,2.0751953125,0.91552734375,-0.1220703125,1.8166666666666667
546,0.0185546875,-0.089111328125,0.974853515625,2.166748046875,0.885009765625,-0.030517578125,1.82
547,0.024169921875,-0.087158203125,0.986572265625,2.3193359375,1.03759765625,-0.213623046875,1.8233333333333333
548,0.019287109375,-0.082763671875,0.982177734375,2.01416015625,0.9765625,0.0,1.8266666666666667
549,0.016845703125,-0.087646484375,0.98046875,2.197265625,1.03759765625,-0.30517578125,1.83
550,0.016357421875,-0.095703125,0.98193359375,2.044677734375,1.03759765625,0.091552734375,1.8333333333333333
551,0.017578125,-0.08154296875,0.977783203125,2.197265625,1.129150390625,0.06103515625,1.8366666666666667
552,0.025634765625,-0.09033203125,0.988525390625,2.0751953125,0.946044921875,-0.06103515625,1.84
553,0.016357421875,-0.086669921875,0.98681640625,2.044677734375,0.9765625,-0.1220703125,1.8433333333333333
554,0.0244140625,-0.08447265625,0.990234375,2.13623046875,1.03759765625,0.06103515625,1.8466666666666667
555,0.021728515625,-0.08544921875,0.984130859375,2.01416015625,1.007080078125,0.0,1.85
556,0.020263671875,-0.082275390625,0.978515625,2.197265625,0.9765625,-0.06103515625,1.8533333333333333
557,0.02197265625,-0.090087890625,0.979248046875,2.166748046875,0.823974609375,-0.1220703125,1.8566666666666667
558,0.020751953125,-0.072509765625,0.981689453125,2.197265625,0.946044921875,-0.213623046875,1.86
559,0.016357421875,-0.07861328125,0.987548828125,2.197265625,1.0986328125,-0.152587890625,1.8633333333333333
560,0.0205078125,-0.0849609375,0.984375,2.044677734375,0.885009765625,-0.152587890625,1.8666666666666667
561,0.015380859375,-0.079345703125,0.984619140625,2.0751953125,1.03759765625,-0.091552734375,1.87
562,0.016357421875,-0.0849609375,0.98046875,2.38037109375,1.068115234375,0.030517578125,1.8733333333333333
563,0.018310546875,-0.08447265625,0.983154296875,2.0751953125,1.007080078125,-0.091552734375,1.8766666666666667
564,0.021728515625,-0.08837890625,0.99072265625,2.0751953125,1.068115234375,-0.1220703125,1.88
565,0.02197265625,-0.088623046875,0.988525390625,2.197265625,0.946044921875,-0.091552734375,1.8833333333333333
566,0.018798828125,-0.087890625,0.99169921875,1.983642578125,1.007080078125,-0.213623046875,1.8866666666666667
567,0.0205078125,-0.08154296875,0.986328125,2.105712890625,0.946044921875,-0.18310546875,1.89
568,0.012451171875,-0.08154296875,0.979736328125,2.13623046875,0.8544921875,-0.152587890625,1.8933333333333333
569,0.023193359375,-0.08203125,0.9814453125,2.197265625,0.885009765625,0.06103515625,1.8966666666666667
570,0.02099609375,-0.075439453125,0.98486328125,2.105712890625,1.007080078125,-0.1220703125,1.9
571,0.015380859375,-0.087158203125,0.98193359375,2.0751953125,0.91552734375,-0.030517578125,1.9033333333333333
572,0.020751953125,-0.08203125,0.985107421875,2.044677734375,0.9765625,-0.1220703125,1.9066666666666667
573,0.02294921875,-0.0888671875,0.97998046875,2.166748046875,0.8544921875,-0.1220703125,1.91
574,0.017578125,-0.08203125,0.979736328125,2.166748046875,0.8544921875,-0.06103515625,1.9133333333333333
575,0.022705078125,-0.08251953125,0.974853515625,1.983642578125,0.91552734375,-0.091552734375,1.9166666666666667
576,0.0234375,-0.080322265625,0.97900390625,2.105712890625,1.15966796875,-0.06103515625,1.92
577,0.019287109375,-0.0869140625,0.985595703125,2.227783203125,0.732421875,-0.06103515625,1.9233333333333333
578,0.01806640625,-0.08447265625,0.992919921875,1.953125,1.007080078125,-0.06103515625,1.9266666666666667
579,0.01708984375,-0.0927734375,0.986083984375,2.105712890625,0.91552734375,-0.030517578125,1.93
580,0.025146484375,-0.090576171875,0.9853515625,2.197265625,0.885009765625,-0.152587890625,1.9333333333333333
581,0.020751953125,-0.08203125,0.980712890625,2.166748046875,0.91552734375,-0.06103515625,1.9366666666666668
582,0.01953125,-0.089599609375,0.98193359375,2.288818359375,1.068115234375,-0.06103515625,1.94
583,0.022705078125,-0.0966796875,0.982421875,1.983642578125,0.9765625,-0.1220703125,1.9433333333333334
584,0.025146484375,-0.085693359375,0.98486328125,2.044677734375,0.823974609375,-0.1220703125,1.9466666666666668
585,0.014404296875,-0.073974609375,0.983642578125,2.01416015625,1.190185546875,0.0,1.95
586,0.017578125,-0.0888671875,0.9853515625,2.01416015625,1.007080078125,0.0,1.9533333333333334
587,0.02197265625,-0.08544921875,0.98095703125,2.349853515625,1.068115234375,-0.1220703125,1.9566666666666668
588,0.017822265625,-0.092041015625,0.98779296875,2.13623046875,0.91552734375,0.0,1.96
589,0.012939453125,-0.080078125,0.983642578125,2.13623046875,1.007080078125,-0.213623046875,1.9633333333333334
590,0.019775390625,-0.0830078125,0.98583984375,2.25830078125,1.129150390625,-0.274658203125,1.9666666666666666
591,0.020751953125,-0.087158203125,0.98486328125,2.01416015625,0.732421875,-0.1220703125,1.97
592,0.01513671875,-0.09130859375,0.986572265625,2.0751953125,0.8544921875,-0.18310546875,1.9733333333333334
593,0.021728515625,-0.086181640625,0.974853515625,2.105712890625,1.068115234375,0.030517578125,1.9766666666666666
594,0.026123046875,-0.08642578125,0.98388671875,2.3193359375,1.007080078125,-0.18310546875,1.98
595,0.017578125,-0.08349609375,0.98583984375,1.983642578125,1.007080078125,-0.1220703125,1.9833333333333334
596,0.0166015625,-0.08447265625,0.98583984375,2.227783203125,0.762939453125,0.030517578125,1.9866666666666666
597,0.0224609375,-0.0810546875,0.986328125,2.25830078125,1.129150390625,-0.06103515625,1.99
598,0.02099609375,-0.083984375,0.9873046875,2.288818359375,0.885009765625,-0.18310546875,1.9933333333333334
599,0.0205078125,-0.082763671875,0.985107421875,2.105712890625,0.9765625,0.0,1.9966666666666666
600,0.01708984375,-0.087158203125,0.978759765625,2.227783203125,0.946044921875,-0.06103515625,2.0
601,0.019775390625,-0.083251953125,0.982666015625,2.197265625,0.9765625,-0.06103515625,2.0033333333333334
602,0.02490234375,-0.088134765625,0.980712890625,2.197265625,0.823974609375,-0.152587890625,2.006666666666667
603,0.016357421875,-0.07958984375,0.988037109375,2.01416015625,0.946044921875,-0.152587890625,2.01
604,0.017578125,-0.08642578125,0.974609375,2.197265625,0.79345703125,-0.18310546875,2.013333333333333
605,0.018310546875,-0.0888671875,0.98291015625,2.227783203125,0.8544921875,-0.030517578125,2.0166666666666666
606,0.01953125,-0.08740234375,0.983642578125,2.13623046875,1.15966796875,-0.030517578125,2.02
607,0.025390625,-0.089599609375,0.975830078125,2.105712890625,0.9765625,-0.1220703125,2.0233333333333334
608,0.019287109375,-0.076416015625,0.986328125,2.166748046875,0.9765625,-0.1220703125,2.026666666666667
609,0.020751953125,-0.092529296875,0.98291015625,2.166748046875,0.885009765625,-0.18310546875,2.03
610,0.0224609375,-0.09228515625,0.985107421875,2.197265625,0.9765625,-0.030517578125,2.033333333333333
611,0.022705078125,-0.08642578125,0.9814453125,2.166748046875,0.885009765625,-0.1220703125,2.0366666666666666
612,0.016845703125,-0.085693359375,0.98046875,2.105712890625,1.190185546875,-0.030517578125,2.04
613,0.024658203125,-0.083251953125,0.984375,2.288818359375,0.91552734375,-0.213623046875,2.0433333333333334
614,0.021240234375,-0.085693359375,0.979736328125,2.105712890625,1.007080078125,-0.274658203125,2.046666666666667
615,0.01953125,-0.086181640625,0.985107421875,1.953125,1.007080078125,-0.152587890625,2.05
616,0.021728515625,-0.093017578125,0.990234375,2.166748046875,0.946044921875,-0.030517578125,2.0533333333333332
617,0.0205078125,-0.081787109375,0.98388671875,2.13623046875,1.03759765625,-0.152587890625,2.0566666666666666
618,0.02392578125,-0.08447265625,0.98388671875,2.13623046875,0.946044921875,0.030517578125,2.06
619,0.014404296875,-0.090087890625,0.98388671875,2.0751953125,0.91552734375,-0.152587890625,2.0633333333333335
620,0.018798828125,-0.088134765625,0.981201171875,2.01416015625,0.9765625,-0.091552734375,2.066666666666667
621,0.01513671875,-0.082763671875,0.990478515625,2.197265625,0.8544921875,-0.274658203125,2.07
622,0.024169921875,-0.083984375,0.981689453125,2.0751953125,0.946044921875,-0.030517578125,2.0733333333333333
623,0.0244140625,-0.07958984375,0.98193359375,2.166748046875,0.79345703125,-0.030517578125,2.0766666666666667
624,0.013427734375,-0.088134765625,0.986328125,2.0751953125,0.762939453125,-0.091552734375,2.08
625,0.017333984375,-0.082275390625,0.989990234375,2.01416015625,1.007080078125,-0.091552734375,2.0833333333333335
626,0.0185546875,-0.09619140625,0.984375,2.197265625,0.885009765625,-0.1220703125,2.0866666666666664
627,0.02392578125,-0.08837890625,0.98291015625,2.166748046875,1.007080078125,-0.18310546875,2.09
628,0.0166015625,-0.083740234375,0.988525390625,2.105712890625,0.946044921875,-0.18310546875,2.0933333333333333
629,0.02197265625,-0.087890625,0.979736328125,2.13623046875,1.007080078125,-0.091552734375,2.0966666666666667
630,0.017822265625,-0.08837890625,0.981201171875,2.25830078125,1.068115234375,-0.18310546875,2.1
631,0.01953125,-0.0869140625,0.979248046875,2.13623046875,1.0986328125,-0.091552734375,2.1033333333333335
632,0.021484375,-0.080810546875,0.9833984375,2.197265625,0.9765625,-0.244140625,2.1066666666666665
633,0.016845703125,-0.079345703125,0.99267578125,2.044677734375,0.9765625,0.152587890625,2.11
634,0.022216796875,-0.0751953125,1.009033203125,2.197265625,0.518798828125,-0.152587890625,2.1133333333333333
635,0.015869140625,-0.097900390625,0.971923828125,1.953125,1.52587890625,-0.244140625,2.1166666666666667
636,0.01806640625,-0.085693359375,0.98974609375,2.227783203125,0.3662109375,-0.244140625,2.12
637,0.0146484375,-0.0888671875,0.95068359375,2.166748046875,1.068115234375,-0.06103515625,2.1233333333333335
638,0.02685546875,-0.090576171875,0.99658203125,2.13623046875,1.068115234375,-0.1220703125,2.1266666666666665
639,0.02294921875,-0.093994140625,0.969482421875,2.0751953125,1.03759765625,-0.18310546875,2.13
640,0.024169921875,-0.088623046875,0.978759765625,2.105712890625,0.9765625,-0.152587890625,2.1333333333333333
641,0.020263671875,-0.077880859375,0.987548828125,2.166748046875,1.03759765625,0.030517578125,2.1366666666666667
642,0.01025390625,-0.087646484375,0.982177734375,1.922607421875,0.885009765625,-0.18310546875,2.14
643,0.028564453125,-0.078857421875,1.00537109375,2.166748046875,0.9765625,-0.244140625,2.1433333333333335
644,0.014404296875,-0.095947265625,0.967041015625,2.13623046875,0.91552734375,0.06103515625,2.1466666666666665
645,0.020751953125,-0.084716796875,0.99365234375,2.0751953125,1.007080078125,-0.152587890625,2.15
646,0.017578125,-0.083251953125,0.983154296875,2.227783203125,0.8544921875,-0.091552734375,2.1533333333333333
647,0.018798828125,-0.078857421875,0.979248046875,2.044677734375,0.91552734375,-0.030517578125,2.1566666666666667
648,0.018310546875,-0.082763671875,0.98583984375,2.0751953125,0.8544921875,-0.18310546875,2.16
649,0.0126953125,-0.09375,0.975341796875,2.288818359375,0.946044921875,0.030517578125,2.1633333333333336
650,0.019775390625,-0.087158203125,0.998046875,1.983642578125,1.068115234375,-0.091552734375,2.1666666666666665
651,0.020263671875,-0.089111328125,0.977783203125,2.197265625,1.007080078125,-0.030517578125,2.17
652,0.0234375,-0.084228515625,0.98828125,2.0751953125,0.823974609375,-0.152587890625,2.1733333333333333
653,0.018798828125,-0.08935546875,0.98583984375,2.25830078125,0.946044921875,0.030517578125,2.1766666666666667
654,0.021728515625,-0.085693359375,0.9912109375,2.227783203125,0.946044921875,-0.30517578125,2.18
655,0.017578125,-0.078125,0.984375,2.288818359375,0.946044921875,-0.152587890625,2.183333333333333
656,0.018310546875,-0.074951171875,0.973876953125,2.105712890625,0.9765625,-0.1220703125,2.1866666666666665
657,0.018798828125,-0.078857421875,0.98583984375,1.983642578125,0.91552734375,-0.213623046875,2.19
658,0.019287109375,-0.08837890625,0.9794921875,2.166748046875,0.885009765625,-0.030517578125,2.1933333333333334
659,0.023193359375,-0.08837890625,0.98388671875,2.105712890625,1.0986328125,0.030517578125,2.1966666666666668
660,0.01806640625,-0.083251953125,0.984375,2.044677734375,0.885009765625,-0.030517578125,2.2
661,0.018798828125,-0.092041015625,0.976318359375,2.0751953125,1.068115234375,-0.030517578125,2.203333333333333
662,0.016845703125,-0.08642578125,0.982666015625,2.044677734375,0.8544921875,-0.213623046875,2.2066666666666666
663,0.018798828125,-0.07958984375,0.97216796875,2.044677734375,0.885009765625,-0.030517578125,2.21
664,0.0166015625,-0.076416015625,0.990478515625,2.0751953125,0.9765625,0.091552734375,2.2133333333333334
665,0.018798828125,-0.088134765625,0.98193359375,2.13623046875,1.15966796875,0.030517578125,2.216666666666667
666,0.01904296875,-0.080322265625,0.986083984375,2.38037109375,0.823974609375,-0.30517578125,2.22
667,0.024169921875,-0.089599609375,0.98876953125,2.01416015625,1.15966796875,0.06103515625,2.223333333333333
668,0.019775390625,-0.09521484375,0.97607421875,2.13623046875,1.007080078125,-0.06103515625,2.2266666666666666
669,0.016845703125,-0.08837890625,0.982421875,2.227783203125,1.03759765625,-0.1220703125,2.23
670,0.01904296875,-0.090576171875,0.97802734375,2.166748046875,0.9765625,-0.06103515625,2.2333333333333334
671,0.01611328125,-0.083740234375,0.98486328125,2.105712890625,0.91552734375,0.0,2.236666666666667
672,0.01708984375,-0.081298828125,0.98486328125,1.953125,1.007080078125,-0.1220703125,2.24
673,0.01416015625,-0.090087890625,0.9833984375,2.044677734375,0.946044921875,0.0,2.243333333333333
674,0.0146484375,-0.08349609375,0.98046875,2.3193359375,0.885009765625,-0.274658203125,2.2466666666666666
675,0.023681640625,-0.0849609375,0.98193359375,2.197265625,0.91552734375,-0.030517578125,2.25
676,0.01171875,-0.0869140625,0.981201171875,2.01416015625,1.007080078125,-0.030517578125,2.2533333333333334
677,0.025146484375,-0.087158203125,0.983154296875,2.288818359375,1.007080078125,0.0,2.256666666666667
678,0.013427734375,-0.08203125,0.98193359375,2.044677734375,1.0986328125,-0.091552734375,2.26
679,0.018798828125,-0.08984375,0.982666015625,2.13623046875,0.91552734375,-0.1220703125,2.263333333333333
680,0.01611328125,-0.082763671875,0.988525390625,2.105712890625,1.007080078125,-0.152587890625,2.2666666666666666
681,0.015869140625,-0.082763671875,0.98291015625,2.197265625,1.068115234375,-0.1220703125,2.27
682,0.02392578125,-0.08837890625,0.9833984375,2.227783203125,0.823974609375,-0.152587890625,2.2733333333333334
683,0.02294921875,-0.08642578125,0.973388671875,2.044677734375,1.251220703125,-0.152587890625,2.276666666666667
684,0.019775390625,-0.073974609375,0.983642578125,2.13623046875,0.91552734375,-0.1220703125,2.28
685,0.01953125,-0.084228515625,0.989501953125,2.197265625,0.8544921875,-0.152587890625,2.283333333333333
686,0.014892578125,-0.082763671875,0.98583984375,2.3193359375,0.946044921875,0.152587890625,2.2866666666666666
687,0.01953125,-0.085205078125,0.986328125,2.166748046875,0.823974609375,-0.030517578125,2.29
688,0.02197265625,-0.0869140625,0.9814453125,2.0751953125,1.03759765625,-0.030517578125,2.2933333333333334
689,0.011474609375,-0.090576171875,0.976318359375,2.13623046875,0.91552734375,-0.3662109375,2.296666666666667
690,0.023193359375,-0.083984375,0.977294921875,2.13623046875,1.129150390625,0.030517578125,2.3
691,0.020751953125,-0.091064453125,0.984619140625,2.227783203125,0.885009765625,0.06103515625,2.3033333333333332
692,0.021484375,-0.0849609375,0.99365234375,2.227783203125,1.0986328125,-0.152587890625,2.3066666666666666
693,0.02197265625,-0.0908203125,0.98486328125,2.13623046875,0.823974609375,-0.06103515625,2.31
694,0.023681640625,-0.081787109375,0.98291015625,2.044677734375,0.9765625,-0.213623046875,2.3133333333333335
695,0.0185546875,-0.0830078125,0.97705078125,2.01416015625,1.007080078125,-0.091552734375,2.316666666666667
696,0.019775390625,-0.082763671875,0.981689453125,2.044677734375,1.03759765625,-0.335693359375,2.32
697,0.01708984375,-0.083740234375,0.98193359375,2.13623046875,0.823974609375,-0.1220703125,2.3233333333333333
698,0.02197265625,-0.080322265625,0.981689453125,1.953125,0.9765625,-0.091552734375,2.3266666666666667
699,0.021240234375,-0.077880859375,0.988037109375,2.197265625,0.885009765625,-0.213623046875,2.33
700,0.015869140625,-0.0888671875,0.98388671875,2.38037109375,0.91552734375,-0.152587890625,2.3333333333333335
701,0.02001953125,-0.080078125,0.988037109375,2.0751953125,0.946044921875,-0.1220703125,2.3366666666666664
702,0.019287109375,-0.07470703125,0.978515625,2.197265625,1.068115234375,-0.152587890625,2.34
703,0.013671875,-0.09033203125,0.980712890625,1.983642578125,0.885009765625,-0.06103515625,2.3433333333333333
704,0.015869140625,-0.09130859375,0.984619140625,2.13623046875,1.03759765625,-0.091552734375,2.3466666666666667
705,0.017333984375,-0.07861328125,0.986572265625,2.227783203125,0.8544921875,-0.030517578125,2.35
706,0.023681640625,-0.08740234375,0.982421875,2.227783203125,1.15966796875,-0.091552734375,2.3533333333333335
707,0.023193359375,-0.095703125,0.979248046875,2.227783203125,0.91552734375,-0.091552734375,2.3566666666666665
708,0.020751953125,-0.08447265625,0.984375,1.953125,0.8544921875,-0.1220703125,2.36
709,0.019775390625,-0.083984375,0.98193359375,2.3193359375,0.8544921875,-0.091552734375,2.3633333333333333
710,0.02197265625,-0.080322265625,0.984619140625,2.105712890625,0.946044921875,-0.030517578125,2.3666666666666667
711,0.018310546875,-0.0849609375,0.980712890625,2.13623046875,0.9765625,-0.152587890625,2.37
712,0.02294921875,-0.0888671875,0.98681640625,2.01416015625,0.9765625,0.030517578125,2.3733333333333335
713,0.017578125,-0.0927734375,0.977294921875,2.471923828125,0.640869140625,-0.274658203125,2.3766666666666665
714,0.0234375,-0.083740234375,0.98046875,2.105712890625,0.91552734375,0.1220703125,2.38
715,0.018310546875,-0.09130859375,0.986083984375,2.197265625,0.91552734375,-0.18310546875,2.3833333333333333
716,0.012451171875,-0.084716796875,0.98486328125,2.227783203125,0.946044921875,-0.030517578125,2.3866666666666667
717,0.017822265625,-0.0888671875,0.982666015625,2.044677734375,1.007080078125,-0.213623046875,2.39
718,0.01806640625,-0.083984375,0.9912109375,2.349853515625,0.79345703125,-0.18310546875,2.3933333333333335
719,0.02392578125,-0.084716796875,0.980712890625,2.227783203125,1.03759765625,-0.18310546875,2.3966666666666665
720,0.0185546875,-0.095458984375,0.98583984375,2.288818359375,0.79345703125,-0.091552734375,2.4
721,0.0146484375,-0.08837890625,0.988037109375,1.983642578125,1.0986328125,-0.06103515625,2.4033333333333333
722,0.0234375,-0.08251953125,0.988525390625,2.044677734375,0.823974609375,0.06103515625,2.4066666666666667
723,0.015625,-0.08984375,0.9873046875,2.13623046875,1.03759765625,-0.091552734375,2.41
724,0.014892578125,-0.08740234375,0.9853515625,2.0751953125,0.9765625,-0.030517578125,2.4133333333333336
725,0.022216796875,-0.08154296875,0.98095703125,2.166748046875,0.91552734375,-0.457763671875,2.4166666666666665
726,0.018310546875,-0.08251953125,0.97900390625,2.044677734375,0.9765625,-0.152587890625,2.42
727,0.021728515625,-0.089111328125,0.987548828125,2.25830078125,0.885009765625,-0.06103515625,2.4233333333333333
728,0.018798828125,-0.090576171875,0.989013671875,2.166748046875,1.03759765625,-0.244140625,2.4266666666666667
729,0.01953125,-0.081787109375,0.9853515625,2.13623046875,0.946044921875,-0.091552734375,2.43
730,0.01025390625,-0.07763671875,0.989013671875,2.166748046875,0.946044921875,0.030517578125,2.433333333333333
731,0.012451171875,-0.095947265625,0.9833984375,2.13623046875,1.068115234375,-0.1220703125,2.4366666666666665
732,0.025146484375,-0.084716796875,0.98583984375,1.953125,0.946044921875,-0.091552734375,2.44
733,0.017822265625,-0.08203125,0.98291015625,2.166748046875,0.9765625,-0.030517578125,2.4433333333333334
734,0.01318359375,-0.08349609375,0.9814453125,2.044677734375,0.91552734375,-0.030517578125,2.4466666666666668
735,0.018798828125,-0.089599609375,0.97998046875,2.166748046875,1.0986328125,-0.1220703125,2.45
736,0.01708984375,-0.08984375,0.97998046875,2.197265625,0.91552734375,0.091552734375,2.453333333333333
737,0.015380859375,-0.089111328125,0.9814453125,2.044677734375,1.129150390625,-0.274658203125,2.4566666666666666
738,0.024169921875,-0.09375,0.979736328125,2.166748046875,1.15966796875,-0.244140625,2.46
739,0.017578125,-0.08642578125,0.981201171875,2.197265625,0.885009765625,-0.06103515625,2.4633333333333334
740,0.021484375,-0.0830078125,0.982421875,2.105712890625,0.946044921875,-0.1220703125,2.466666666666667
741,0.019287109375,-0.0849609375,0.986572265625,1.89208984375,0.885009765625,-0.06103515625,2.47
742,0.0205078125,-0.09521484375,0.98388671875,2.044677734375,0.946044921875,-0.152587890625,2.473333333333333
743,0.015625,-0.087890625,0.980712890625,2.197265625,1.007080078125,-0.18310546875,2.4766666666666666
744,0.02490234375,-0.081787109375,0.981201171875,2.197265625,1.007080078125,0.030517578125,2.48
745,0.021728515625,-0.085693359375,0.979248046875,2.197265625,1.0986328125,-0.06103515625,2.4833333333333334
746,0.021240234375,-0.088134765625,0.98583984375,2.01416015625,1.15966796875,0.030517578125,2.486666666666667
747,0.025146484375,-0.087158203125,0.97607421875,2.288818359375,0.9765625,0.0,2.49
748,0.013427734375,-0.091796875,0.976806640625,2.166748046875,0.91552734375,-0.06103515625,2.493333333333333
749,0.02197265625,-0.084228515625,0.983154296875,2.197265625,1.03759765625,-0.244140625,2.4966666666666666
750,0.016357421875,-0.076416015625,0.98486328125,2.01416015625,1.007080078125,-0.06103515625,2.5
751,0.020751953125,-0.090087890625,0.984130859375,2.166748046875,1.0986328125,-0.18310546875,2.5033333333333334
752,0.017333984375,-0.0791015625,0.978515625,2.105712890625,0.9765625,0.0,2.506666666666667
753,0.027587890625,-0.08984375,0.98193359375,2.197265625,1.03759765625,-0.213623046875,2.51
754,0.013916015625,-0.078369140625,0.98095703125,2.288818359375,0.823974609375,-0.06103515625,2.513333333333333
755,0.0185546875,-0.087158203125,0.98388671875,2.13623046875,0.91552734375,-0.274658203125,2.5166666666666666
756,0.014892578125,-0.077392578125,0.98388671875,2.105712890625,0.67138671875,-0.244140625,2.52
757,0.02001953125,-0.087890625,0.98486328125,2.227783203125,1.0986328125,0.0,2.5233333333333334
758,0.01708984375,-0.088134765625,0.981201171875,2.166748046875,0.823974609375,-0.06103515625,2.526666666666667
759,0.0234375,-0.08203125,0.98388671875,2.13623046875,0.9765625,0.030517578125,2.53
760,0.020263671875,-0.093017578125,0.983642578125,2.166748046875,1.0986328125,-0.06103515625,2.533333333333333
761,0.017822265625,-0.09130859375,0.988037109375,2.0751953125,1.068115234375,-0.091552734375,2.5366666666666666
762,0.0146484375,-0.09375,0.97998046875,2.227783203125,0.8544921875,-0.030517578125,2.54
763,0.024169921875,-0.086669921875,0.983154296875,2.044677734375,0.91552734375,-0.3662109375,2.5433333333333334
764,0.022216796875,-0.083740234375,0.978759765625,2.3193359375,0.946044921875,0.06103515625,2.546666666666667
765,0.020263671875,-0.074462890625,0.980712890625,2.197265625,0.8544921875,0.030517578125,2.55
766,0.02197265625,-0.086181640625,0.97900390625,2.13623046875,0.946044921875,-0.18310546875,2.5533333333333332
767,0.02392578125,-0.0791015625,0.99267578125,2.105712890625,0.9765625,-0.091552734375,2.5566666666666666
768,0.017822265625,-0.086669921875,0.970947265625,2.13623046875,0.8544921875,-0.030517578125,2.56
769,0.019287109375,-0.084716796875,0.997802734375,2.0751953125,0.946044921875,-0.06103515625,2.5633333333333335
770,0.0146484375,-0.0908203125,0.97314453125,2.105712890625,0.823974609375,-0.030517578125,2.566666666666667
771,0.019775390625,-0.078125,0.994873046875,2.197265625,1.0986328125,-0.091552734375,2.57
772,0.01708984375,-0.090087890625,0.982421875,2.166748046875,0.8544921875,0.0,2.5733333333333333
773,0.019775390625,-0.083984375,0.976318359375,2.288818359375,0.9765625,-0.213623046875,2.5766666666666667
774,0.019287109375,-0.080078125,0.991455078125,2.197265625,0.91552734375,-0.06103515625,2.58
775,0.015869140625,-0.084716796875,0.978515625,2.13623046875,1.03759765625,-0.152587890625,2.5833333333333335
776,0.021728515625,-0.077392578125,0.98486328125,2.166748046875,0.91552734375,0.0,2.5866666666666664
777,0.01513671875,-0.0859375,0.978271484375,2.227783203125,1.068115234375,-0.274658203125,2.59
778,0.018798828125,-0.08447265625,0.989501953125,2.227783203125,0.91552734375,-0.152587890625,2.5933333333333333
779,0.01806640625,-0.08642578125,0.979248046875,2.166748046875,0.8544921875,0.1220703125,2.5966666666666667
780,0.01953125,-0.090576171875,0.97802734375,2.197265625,0.946044921875,-0.213623046875,2.6
781,0.0185546875,-0.085693359375,0.985107421875,1.953125,0.9765625,0.030517578125,2.6033333333333335
782,0.020751953125,-0.088134765625,0.985107421875,2.3193359375,0.823974609375,-0.091552734375,2.6066666666666665
783,0.0146484375,-0.088623046875,0.980224609375,1.861572265625,0.885009765625,-0.244140625,2.61
784,0.01318359375,-0.09130859375,0.979736328125,2.25830078125,0.946044921875,0.091552734375,2.6133333333333333
785,0.023681640625,-0.078369140625,0.98779296875,2.166748046875,0.79345703125,-0.18310546875,2.6166666666666667
786,0.0205078125,-0.08837890625,0.9892578125,2.25830078125,1.068115234375,0.0,2.62
787,0.017822265625,-0.086181640625,0.988037109375,2.105712890625,0.79345703125,-0.152587890625,2.6233333333333335
788,0.02294921875,-0.083251953125,0.98388671875,2.197265625,0.91552734375,0.0,2.6266666666666665
789,0.0146484375,-0.08447265625,0.986572265625,2.227783203125,0.885009765625,-0.152587890625,2.63
790,0.020263671875,-0.086181640625,0.980712890625,2.197265625,1.007080078125,-0.091552734375,2.6333333333333333
791,0.02001953125,-0.086181640625,0.98388671875,2.105712890625,0.885009765625,-0.1220703125,2.6366666666666667
792,0.014404296875,-0.0732421875,0.985107421875,2.227783203125,0.8544921875,-0.152587890625,2.64
793,0.018798828125,-0.08251953125,0.983154296875,2.227783203125,0.9765625,-0.274658203125,2.6433333333333335
794,0.01708984375,-0.07861328125,0.984619140625,2.3193359375,0.946044921875,-0.06103515625,2.6466666666666665
795,0.013427734375,-0.083984375,0.982421875,2.227783203125,0.823974609375,-0.1220703125,2.65
796,0.019775390625,-0.08935546875,0.9853515625,2.227783203125,0.9765625,-0.213623046875,2.6533333333333333
797,0.022216796875,-0.0810546875,0.989990234375,2.044677734375,0.946044921875,-0.030517578125,2.6566666666666667
798,0.016845703125,-0.087646484375,0.9833984375,2.349853515625,0.91552734375,-0.244140625,2.66
799,0.022216796875,-0.081298828125,0.98583984375,2.166748046875,0.823974609375,0.0,2.6633333333333336
800,0.014404296875,-0.08056640625,0.987548828125,2.01416015625,0.732421875,-0.1220703125,2.6666666666666665
801,0.01806640625,-0.082763671875,0.989501953125,2.13623046875,0.823974609375,-0.1220703125,2.67
802,0.020263671875,-0.0849609375,0.981201171875,2.105712890625,1.03759765625,0.0,2.6733333333333333
803,0.016357421875,-0.087158203125,0.98193359375,2.0751953125,0.885009765625,-0.213623046875,2.6766666666666667
804,0.023193359375,-0.091796875,0.977783203125,2.197265625,0.91552734375,-0.030517578125,2.68
805,0.0166015625,-0.087890625,0.97265625,2.13623046875,0.823974609375,0.0,2.683333333333333
806,0.015380859375,-0.07861328125,0.976806640625,2.38037109375,0.762939453125,-0.091552734375,2.6866666666666665
807,0.020263671875,-0.08447265625,0.982666015625,2.197265625,0.91552734375,-0.1220703125,2.69
808,0.01513671875,-0.091796875,0.982177734375,2.3193359375,0.885009765625,0.0,2.6933333333333334
809,0.01220703125,-0.092529296875,0.98046875,2.349853515625,0.79345703125,-0.152587890625,2.6966666666666668
810,0.01611328125,-0.0771484375,0.985595703125,2.3193359375,0.823974609375,-0.06103515625,2.7
811,0.022705078125,-0.067138671875,0.990478515625,2.166748046875,0.457763671875,-0.091552734375,2.703333333333333
812,0.022216796875,-0.083251953125,0.97998046875,2.227783203125,1.007080078125,-0.152587890625,2.7066666666666666
813,0.0205078125,-0.080810546875,1.009033203125,1.922607421875,1.495361328125,0.091552734375,2.71
814,0.012939453125,-0.079345703125,0.963623046875,1.861572265625,0.91552734375,-0.30517578125,2.7133333333333334
815,0.026123046875,-0.0791015625,0.998291015625,2.0751953125,1.0986328125,0.06103515625,2.716666666666667
816,0.0283203125,-0.0888671875,0.97412109375,2.197265625,0.91552734375,-0.1220703125,2.72
817,0.0185546875,-0.082275390625,0.980224609375,2.288818359375,0.79345703125,0.0,2.723333333333333
818,0.0205078125,-0.0810546875,1.001220703125,2.25830078125,0.91552734375,-0.152587890625,2.7266666666666666
819,0.013427734375,-0.09521484375,0.977294921875,2.288818359375,1.03759765625,-0.1220703125,2.73
820,0.02197265625,-0.083984375,0.990234375,2.227783203125,0.54931640625,0.030517578125,2.7333333333333334
821,0.017333984375,-0.082275390625,0.96630859375,2.13623046875,1.03759765625,-0.213623046875,2.736666666666667
822,0.015869140625,-0.083740234375,0.980712890625,2.25830078125,1.007080078125,-0.06103515625,2.74
823,0.019775390625,-0.08447265625,0.9853515625,2.197265625,0.8544921875,-0.152587890625,2.743333333333333
824,0.015869140625,-0.090576171875,0.986572265625,2.0751953125,1.129150390625,-0.18310546875,2.7466666666666666
825,0.02001953125,-0.08544921875,0.9912109375,2.349853515625,0.640869140625,-0.1220703125,2.75
826,0.020751953125,-0.08837890625,0.97265625,2.105712890625,0.79345703125,0.0,2.7533333333333334
827,0.0224609375,-0.080078125,0.977294921875,2.197265625,1.220703125,-0.244140625,2.756666666666667
828,0.02294921875,-0.089111328125,0.975341796875,2.532958984375,0.54931640625,-0.1220703125,2.76
829,0.021240234375,-0.071044921875,0.98828125,2.166748046875,1.129150390625,-0.091552734375,2.763333333333333
830,0.02197265625,-0.087890625,0.9755859375,2.3193359375,1.007080078125,-0.091552734375,2.7666666666666666
831,0.015625,-0.07763671875,0.98583984375,2.349853515625,0.579833984375,-0.06103515625,2.77
832,0.026611328125,-0.082763671875,0.98583984375,1.983642578125,1.0986328125,-0.213623046875,2.7733333333333334
833,0.01611328125,-0.082275390625,0.977294921875,2.166748046875,0.946044921875,-0.152587890625,2.776666666666667
834,0.019775390625,-0.103759765625,0.980224609375,2.44140625,0.701904296875,-0.06103515625,2.78
835,0.02099609375,-0.08447265625,0.9833984375,2.25830078125,0.9765625,0.0,2.783333333333333
836,0.01806640625,-0.081298828125,0.977783203125,2.105712890625,0.79345703125,-0.152587890625,2.7866666666666666
837,0.020263671875,-0.080810546875,0.982177734375,2.25830078125,1.0986328125,-0.1220703125,2.79
838,0.017333984375,-0.083984375,0.978759765625,2.3193359375,1.068115234375,0.06103515625,2.7933333333333334
839,0.01513671875,-0.0869140625,0.980224609375,2.25830078125,0.823974609375,-0.091552734375,2.796666666666667
840,0.02197265625,-0.087158203125,0.984130859375,2.105712890625,0.885009765625,0.030517578125,2.8
841,0.01708984375,-0.09228515625,0.97607421875,2.25830078125,0.762939453125,-0.213623046875,2.8033333333333332
842,0.01953125,-0.085693359375,0.983642578125,2.227783203125,0.6103515625,-0.213623046875,2.8066666666666666
843,0.017578125,-0.083984375,0.987548828125,2.410888671875,1.0986328125,-0.091552734375,2.81
844,0.018798828125,-0.07568359375,0.985107421875,2.0751953125,1.068115234375,-0.06103515625,2.8133333333333335
845,0.019775390625,-0.083984375,0.99560546875,2.13623046875,0.91552734375,-0.152587890625,2.816666666666667
846,0.02099609375,-0.087158203125,0.986083984375,2.13623046875,1.03759765625,-0.213623046875,2.82
847,0.01953125,-0.081298828125,0.982177734375,2.0751953125,0.8544921875,-0.091552734375,2.8233333333333333
848,0.01708984375,-0.080810546875,0.973388671875,2.227783203125,0.8544921875,0.0,2.8266666666666667
849,0.01513671875,-0.087890625,0.979248046875,2.3193359375,0.885009765625,-0.06103515625,2.83
850,0.01806640625,-0.082763671875,0.986328125,2.0751953125,1.03759765625,-0.1220703125,2.8333333333333335
851,0.02001953125,-0.086181640625,0.975341796875,2.197265625,0.732421875,-0.06103515625,2.8366666666666664
852,0.02099609375,-0.0810546875,0.998291015625,2.105712890625,0.885009765625,0.06103515625,2.84
853,0.0205078125,-0.077880859375,0.97021484375,2.13623046875,0.732421875,-0.030517578125,2.8433333333333333
854,0.013916015625,-0.08349609375,0.990234375,2.227783203125,0.9765625,0.030517578125,2.8466666666666667
855,0.01123046875,-0.083984375,0.9853515625,2.288818359375,0.823974609375,-0.091552734375,2.85
856,0.014892578125,-0.07763671875,0.978515625,2.13623046875,1.007080078125,-0.18310546875,2.8533333333333335
857,0.012451171875,-0.083251953125,0.982177734375,2.0751953125,0.946044921875,0.0,2.8566666666666665
858,0.021484375,-0.082763671875,0.983642578125,2.13623046875,1.03759765625,-0.030517578125,2.86
859,0.01708984375,-0.082275390625,0.9873046875,2.288818359375,0.885009765625,-0.091552734375,2.8633333333333333
860,0.019287109375,-0.0869140625,0.98095703125,2.288818359375,1.129150390625,0.0,2.8666666666666667
861,0.0224609375,-0.084716796875,0.98876953125,2.044677734375,0.640869140625,-0.1220703125,2.87
862,0.009765625,-0.08642578125,0.985595703125,2.197265625,1.007080078125,-0.18310546875,2.8733333333333335
863,0.020263671875,-0.0888671875,0.97998046875,2.227783203125,0.8544921875,-0.244140625,2.8766666666666665
864,0.015869140625,-0.07958984375,0.994140625,2.349853515625,1.007080078125,0.0,2.88
865,0.018798828125,-0.083251953125,0.975830078125,2.288818359375,1.068115234375,-0.18310546875,2.8833333333333333
866,0.019287109375,-0.077880859375,0.98828125,2.25830078125,0.67138671875,-0.18310546875,2.8866666666666667
867,0.020263671875,-0.091064453125,0.98193359375,2.13623046875,1.129150390625,0.1220703125,2.89
868,0.020263671875,-0.0751953125,0.98681640625,1.922607421875,0.732421875,-0.152587890625,2.8933333333333335
869,0.020263671875,-0.08984375,0.981689453125,2.0751953125,1.068115234375,0.0,2.8966666666666665
870,0.020751953125,-0.084716796875,0.986328125,2.25830078125,0.762939453125,-0.152587890625,2.9
871,0.02197265625,-0.087646484375,0.985595703125,2.0751953125,0.79345703125,-0.18310546875,2.9033333333333333
872,0.021484375,-0.08837890625,0.980712890625,2.349853515625,1.0986328125,-0.030517578125,2.9066666666666667
873,0.019775390625,-0.085205078125,0.9892578125,2.044677734375,0.885009765625,-0.091552734375,2.91
874,0.022705078125,-0.085205078125,0.98583984375,2.288818359375,0.946044921875,-0.030517578125,2.9133333333333336
875,0.0224609375,-0.08349609375,0.98779296875,2.25830078125,1.007080078125,0.091552734375,2.9166666666666665
876,0.018310546875,-0.082275390625,0.983154296875,2.13623046875,0.885009765625,-0.274658203125,2.92
877,0.017333984375,-0.082763671875,0.976806640625,2.166748046875,0.732421875,-0.06103515625,2.9233333333333333
878,0.02197265625,-0.08837890625,0.977294921875,2.3193359375,1.007080078125,0.06103515625,2.9266666666666667
879,0.02490234375,-0.08056640625,0.984619140625,2.197265625,0.8544921875,-0.091552734375,2.93
880,0.02392578125,-0.0869140625,0.97900390625,2.349853515625,0.946044921875,0.091552734375,2.933333333333333
881,0.017578125,-0.084716796875,0.978759765625,2.288818359375,0.91552734375,-0.091552734375,2.9366666666666665
882,0.02197265625,-0.076171875,0.98583984375,2.105712890625,0.823974609375,-0.030517578125,2.94
883,0.018798828125,-0.08056640625,0.97509765625,2.166748046875,0.946044921875,-0.1220703125,2.9433333333333334
884,0.016845703125,-0.08447265625,0.9873046875,2.105712890625,0.91552734375,-0.213623046875,2.9466666666666668
885,0.02001953125,-0.079345703125,0.983154296875,2.288818359375,0.946044921875,-0.1220703125,2.95
886,0.0234375,-0.08203125,0.986328125,2.3193359375,0.9765625,-0.152587890625,2.953333333333333
887,0.019287109375,-0.090087890625,0.982421875,2.105712890625,0.885009765625,-0.152587890625,2.9566666666666666
888,0.020263671875,-0.088623046875,0.98046875,2.13623046875,0.8544921875,-0.18310546875,2.96
889,0.018798828125,-0.079833984375,0.983154296875,1.983642578125,1.007080078125,0.091552734375,2.9633333333333334
890,0.01806640625,-0.08642578125,0.984619140625,2.197265625,0.946044921875,-0.30517578125,2.966666666666667
891,0.023193359375,-0.09130859375,0.984375,2.25830078125,1.03759765625,-0.091552734375,2.97
892,0.020263671875,-0.083984375,0.98291015625,2.105712890625,0.91552734375,-0.030517578125,2.973333333333333
893,0.01904296875,-0.0908203125,0.98486328125,2.288818359375,0.79345703125,-0.030517578125,2.9766666666666666
894,0.016357421875,-0.087646484375,0.990478515625,2.197265625,0.9765625,-0.152587890625,2.98
895,0.0126953125,-0.0888671875,0.9794921875,2.227783203125,0.91552734375,-0.1220703125,2.9833333333333334
896,0.021484375,-0.09228515625,0.985107421875,2.044677734375,1.03759765625,-0.18310546875,2.986666666666667
897,0.017822265625,-0.080078125,0.984619140625,2.01416015625,0.946044921875,-0.3662109375,2.99
898,0.017333984375,-0.0869140625,0.9814453125,2.105712890625,0.946044921875,-0.213623046875,2.993333333333333
899,0.018798828125,-0.0849609375,0.978759765625,2.13623046875,1.007080078125,-0.06103515625,2.9966666666666666
900,0.018798828125,-0.08544921875,0.9814453125,2.166748046875,0.9765625,0.091552734375,3.0
901,0.016845703125,-0.085205078125,0.980712890625,2.13623046875,1.03759765625,-0.1220703125,3.0033333333333334
902,0.021484375,-0.091064453125,0.989990234375,2.0751953125,0.946044921875,-0.091552734375,3.006666666666667
903,0.01611328125,-0.078125,0.982177734375,2.044677734375,0.946044921875,-0.06103515625,3.01
904,0.021728515625,-0.089599609375,0.98046875,2.13623046875,0.885009765625,-0.06103515625,3.013333333333333
905,0.02197265625,-0.08056640625,0.975341796875,2.25830078125,0.91552734375,-0.06103515625,3.0166666666666666
906,0.017578125,-0.087158203125,0.97607421875,2.105712890625,1.03759765625,-0.06103515625,3.02
907,0.0234375,-0.086181640625,0.981201171875,2.197265625,0.79345703125,-0.274658203125,3.0233333333333334
908,0.016845703125,-0.080322265625,0.982177734375,2.197265625,0.946044921875,0.0,3.026666666666667
909,0.018798828125,-0.08740234375,0.98388671875,2.288818359375,0.885009765625,-0.1220703125,3.03
910,0.019287109375,-0.0830078125,0.9853515625,2.227783203125,0.823974609375,0.030517578125,3.033333333333333
911,0.01611328125,-0.083984375,0.980712890625,2.288818359375,0.9765625,-0.152587890625,3.0366666666666666
912,0.02099609375,-0.08544921875,0.97705078125,2.044677734375,0.8544921875,0.06103515625,3.04
913,0.02001953125,-0.090087890625,0.98046875,2.13623046875,1.129150390625,0.030517578125,3.0433333333333334
914,0.015869140625,-0.08349609375,0.984619140625,2.25830078125,0.9765625,0.0,3.046666666666667
915,0.015625,-0.092529296875,0.98779296875,2.227783203125,0.762939453125,-0.274658203125,3.05
916,0.0224609375,-0.08837890625,0.98974609375,2.227783203125,1.007080078125,-0.06103515625,3.0533333333333332
917,0.021484375,-0.085205078125,0.982421875,2.197265625,0.9765625,-0.18310546875,3.0566666666666666
918,0.011962890625,-0.065673828125,1.015869140625,1.953125,0.8544921875,-0.030517578125,3.06
919,0.019287109375,-0.101318359375,0.940185546875,2.166748046875,1.0986328125,-0.18310546875,3.0633333333333335
920,0.018798828125,-0.0908203125,0.9677734375,2.532958984375,0.885009765625,-0.152587890625,3.066666666666667
921,0.015625,-0.067138671875,1.002197265625,2.0751953125,1.007080078125,-0.091552734375,3.07
922,0.018798828125,-0.0810546875,0.97705078125,2.13623046875,0.79345703125,-0.030517578125,3.0733333333333333
923,0.012939453125,-0.08837890625,0.98779296875,2.227783203125,1.007080078125,-0.06103515625,3.0766666666666667
924,0.0185546875,-0.08837890625,0.9619140625,2.13623046875,1.220703125,-0.1220703125,3.08
925,0.025634765625,-0.078857421875,0.999267578125,2.13623046875,0.518798828125,0.0,3.0833333333333335
926,0.016845703125,-0.06689453125,1.011962890625,1.983642578125,1.15966796875,-0.213623046875,3.0866666666666664
927,0.013427734375,-0.06982421875,0.994873046875,1.983642578125,0.946044921875,-0.152587890625,3.09
928,0.025634765625,-0.0908203125,1.033447265625,2.044677734375,0.885009765625,-0.06103515625,3.0933333333333333
929,0.017578125,-0.07861328125,1.000244140625,2.0751953125,1.129150390625,-0.18310546875,3.0966666666666667
930,0.02099609375,-0.0908203125,0.97802734375,2.197265625,0.823974609375,0.213623046875,3.1
931,0.024169921875,-0.074462890625,0.973876953125,2.288818359375,0.762939453125,-0.213623046875,3.1033333333333335
932,0.01904296875,-0.08935546875,0.989501953125,2.044677734375,1.007080078125,-0.06103515625,3.1066666666666665
933,0.016845703125,-0.085205078125,0.992919921875,2.0751953125,1.03759765625,-0.030517578125,3.11
934,0.014892578125,-0.061767578125,1.012939453125,1.861572265625,0.579833984375,-0.1220703125,3.1133333333333333
935,0.014404296875,-0.090087890625,0.99853515625,1.922607421875,1.373291015625,-0.030517578125,3.1166666666666667
936,0.021728515625,-0.071044921875,1.030517578125,2.105712890625,0.701904296875,0.1220703125,3.12
937,0.015380859375,-0.078857421875,0.997802734375,2.13623046875,1.068115234375,-0.152587890625,3.1233333333333335
938,0.019287109375,-0.076904296875,0.987060546875,2.288818359375,0.8544921875,-0.18310546875,3.1266666666666665
939,0.015625,-0.08447265625,0.9931640625,2.166748046875,0.946044921875,-0.030517578125,3.13
940,0.021240234375,-0.09130859375,0.989501953125,2.166748046875,0.885009765625,-0.18310546875,3.1333333333333333
941,0.020263671875,-0.10009765625,0.941162109375,2.288818359375,0.91552734375,-0.152587890625,3.1366666666666667
942,0.0234375,-0.0859375,0.98583984375,2.0751953125,0.9765625,-0.244140625,3.14
943,0.01708984375,-0.072265625,0.98486328125,1.953125,0.9765625,-0.30517578125,3.1433333333333335
944,0.015625,-0.111083984375,0.972412109375,2.197265625,1.129150390625,0.030517578125,3.1466666666666665
945,0.013916015625,-0.089111328125,0.972900390625,2.0751953125,0.946044921875,0.091552734375,3.15
946,0.01904296875,-0.079345703125,0.99462890625,2.01416015625,0.732421875,-0.3662109375,3.1533333333333333
947,0.0185546875,-0.09423828125,0.98583984375,2.105712890625,0.91552734375,-0.1220703125,3.1566666666666667
948,0.015380859375,-0.080322265625,0.978515625,1.953125,1.15966796875,-0.091552734375,3.16
949,0.01904296875,-0.086181640625,0.95068359375,2.25830078125,0.823974609375,-0.274658203125,3.1633333333333336
950,0.02685546875,-0.09326171875,1.017578125,2.044677734375,0.823974609375,-0.06103515625,3.1666666666666665
951,0.014404296875,-0.067138671875,0.996337890625,1.953125,0.9765625,-0.1220703125,3.17
952,0.01953125,-0.080322265625,1.006103515625,2.166748046875,0.9765625,-0.06103515625,3.1733333333333333
953,0.021240234375,-0.083740234375,0.964111328125,2.13623046875,1.068115234375,-0.1220703125,3.1766666666666667
954,0.01611328125,-0.078369140625,0.988037109375,2.288818359375,0.732421875,-0.091552734375,3.18
955,0.01904296875,-0.077880859375,0.985107421875,2.13623046875,0.9765625,-0.18310546875,3.183333333333333
956,0.02001953125,-0.082275390625,0.981201171875,2.197265625,0.8544921875,-0.091552734375,3.1866666666666665
957,0.01904296875,-0.085693359375,0.9853515625,2.197265625,0.9765625,-0.06103515625,3.19
958,0.02001953125,-0.078857421875,0.96875,2.044677734375,1.220703125,0.1220703125,3.1933333333333334
959,0.016357421875,-0.0751953125,0.996337890625,2.044677734375,0.8544921875,-0.213623046875,3.1966666666666668
960,0.025634765625,-0.097900390625,0.974853515625,2.25830078125,1.3427734375,0.06103515625,3.2
961,0.01806640625,-0.087646484375,1.015625,1.953125,0.885009765625,-0.030517578125,3.203333333333333
962,0.016845703125,-0.064697265625,1.005859375,2.01416015625,1.0986328125,-0.091552734375,3.2066666666666666
963,0.02294921875,-0.099609375,0.967529296875,2.471923828125,0.732421875,-0.1220703125,3.21
964,0.02783203125,-0.082763671875,0.98583984375,2.0751953125,1.190185546875,-0.091552734375,3.2133333333333334
965,0.021728515625,-0.090576171875,0.969482421875,2.105712890625,0.8544921875,-0.18310546875,3.216666666666667
966,0.025146484375,-0.08203125,0.982421875,2.0751953125,0.823974609375,0.0,3.22
967,0.0224609375,-0.084228515625,0.97802734375,2.044677734375,1.03759765625,-0.030517578125,3.223333333333333
968,0.02294921875,-0.091552734375,0.989501953125,2.166748046875,0.946044921875,-0.030517578125,3.2266666666666666
969,0.02197265625,-0.08837890625,0.986083984375,2.197265625,0.946044921875,-0.18310546875,3.23
970,0.019775390625,-0.0888671875,0.99072265625,2.044677734375,1.129150390625,-0.1220703125,3.2333333333333334
971,0.0205078125,-0.089599609375,0.97412109375,2.044677734375,0.8544921875,-0.18310546875,3.236666666666667
972,0.022216796875,-0.079345703125,0.9765625,2.0751953125,0.91552734375,-0.30517578125,3.24
973,0.024169921875,-0.08349609375,0.97705078125,2.166748046875,0.9765625,-0.091552734375,3.243333333333333
974,0.012939453125,-0.08349609375,0.960693359375,2.166748046875,1.03759765625,-0.06103515625,3.2466666666666666
975,0.025146484375,-0.083984375,0.989501953125,2.25830078125,0.9765625,-0.152587890625,3.25
976,0.017333984375,-0.080078125,0.981689453125,2.105712890625,1.03759765625,-0.18310546875,3.2533333333333334
977,0.01806640625,-0.071044921875,0.9970703125,2.044677734375,0.91552734375,-0.030517578125,3.256666666666667
978,0.020263671875,-0.085693359375,0.986083984375,2.0751953125,0.885009765625,-0.1220703125,3.26
979,0.01806640625,-0.07763671875,0.980712890625,2.25830078125,0.9765625,-0.091552734375,3.263333333333333
980,0.0185546875,-0.085205078125,0.986328125,2.197265625,1.190185546875,-0.152587890625,3.2666666666666666
981,0.01416015625,-0.08447265625,0.971435546875,2.13623046875,1.03759765625,-0.18310546875,3.27
982,0.01416015625,-0.08251953125,0.994384765625,2.0751953125,1.068115234375,0.091552734375,3.2733333333333334
983,0.01611328125,-0.083251953125,0.98095703125,2.288818359375,0.762939453125,-0.244140625,3.276666666666667
984,0.01904296875,-0.086669921875,0.9853515625,2.044677734375,0.91552734375,-0.30517578125,3.28
985,0.0224609375,-0.0888671875,0.98583984375,2.38037109375,1.03759765625,0.091552734375,3.283333333333333
986,0.020751953125,-0.0869140625,0.98876953125,2.105712890625,1.129150390625,0.0,3.2866666666666666
987,0.010498046875,-0.081787109375,0.98583984375,1.922607421875,1.15966796875,0.213623046875,3.29
988,0.024658203125,-0.08251953125,0.98291015625,2.197265625,0.9765625,0.091552734375,3.2933333333333334
989,0.02197265625,-0.08056640625,0.99609375,2.044677734375,0.946044921875,-0.091552734375,3.296666666666667
990,0.01953125,-0.088134765625,0.986328125,2.044677734375,0.8544921875,-0.06103515625,3.3
991,0.020263671875,-0.091552734375,0.98291015625,2.105712890625,1.068115234375,-0.18310546875,3.3033333333333332
992,0.013427734375,-0.089599609375,0.98583984375,2.227783203125,0.885009765625,-0.274658203125,3.3066666666666666
993,0.01708984375,-0.083740234375,0.9892578125,2.0751953125,1.15966796875,-0.091552734375,3.31
994,0.02099609375,-0.074462890625,0.982177734375,2.288818359375,0.79345703125,-0.091552734375,3.3133333333333335
995,0.014404296875,-0.08447265625,0.97509765625,2.01416015625,1.03759765625,-0.152587890625,3.316666666666667
996,0.019775390625,-0.083251953125,0.9794921875,2.0751953125,1.007080078125,-0.06103515625,3.32
997,0.020751953125,-0.084228515625,0.97802734375,2.0751953125,0.732421875,-0.030517578125,3.3233333333333333
998,0.027099609375,-0.086181640625,0.98095703125,1.922607421875,1.068115234375,-0.1220703125,3.3266666666666667
999,0.02294921875,-0.074462890625,0.984130859375,2.0751953125,1.068115234375,-0.18310546875,3.33
1000,0.0166015625,-0.0791015625,0.983154296875,2.01416015625,0.91552734375,-0.091552734375,3.3333333333333335
1001,0.017333984375,-0.07373046875,0.991455078125,2.166748046875,1.190185546875,-0.1220703125,3.3366666666666664
1002,0.017333984375,-0.089599609375,0.97705078125,2.01416015625,0.823974609375,-0.152587890625,3.34
1003,0.02197265625,-0.078125,0.9833984375,2.0751953125,0.946044921875,-0.152587890625,3.3433333333333333
1004,0.01904296875,-0.080322265625,0.986328125,2.25830078125,1.220703125,0.06103515625,3.3466666666666667
1005,0.01611328125,-0.087158203125,0.980712890625,2.13623046875,0.91552734375,-0.1220703125,3.35
1006,0.0234375,-0.083251953125,0.984619140625,2.0751953125,0.823974609375,-0.213623046875,3.3533333333333335
1007,0.02197265625,-0.08447265625,0.982177734375,2.13623046875,1.312255859375,-0.244140625,3.3566666666666665
1008,0.019775390625,-0.090087890625,0.984619140625,2.0751953125,0.732421875,0.1220703125,3.36
1009,0.022705078125,-0.088623046875,0.98876953125,2.105712890625,1.068115234375,-0.18310546875,3.3633333333333333
1010,0.02392578125,-0.081787109375,0.9873046875,2.01416015625,1.312255859375,0.030517578125,3.3666666666666667
1011,0.02001953125,-0.08203125,0.977294921875,2.227783203125,0.67138671875,-0.152587890625,3.37
1012,0.026611328125,-0.089111328125,0.98291015625,2.197265625,1.15966796875,-0.091552734375,3.3733333333333335
1013,0.016357421875,-0.092041015625,0.984375,2.044677734375,1.15966796875,-0.1220703125,3.3766666666666665
1014,0.007568359375,-0.08544921875,0.978515625,2.166748046875,0.762939453125,0.0,3.38
1015,0.022705078125,-0.074462890625,0.980224609375,1.953125,1.0986328125,-0.06103515625,3.3833333333333333
1016,0.019287109375,-0.091064453125,0.980712890625,1.89208984375,1.15966796875,-0.06103515625,3.3866666666666667
1017,0.014892578125,-0.083251953125,0.9873046875,2.197265625,0.885009765625,-0.091552734375,3.39
1018,0.02392578125,-0.0830078125,0.980224609375,2.227783203125,0.9765625,-0.091552734375,3.3933333333333335
1019,0.018310546875,-0.086181640625,0.982421875,1.861572265625,0.8544921875,-0.213623046875,3.3966666666666665
1020,0.017333984375,-0.08349609375,0.980712890625,2.166748046875,0.91552734375,-0.18310546875,3.4
1021,0.016845703125,-0.0859375,0.980224609375,2.288818359375,0.946044921875,-0.030517578125,3.4033333333333333
1022,0.020263671875,-0.08740234375,0.98974609375,1.983642578125,1.03759765625,0.0,3.4066666666666667
1023,0.02197265625,-0.090576171875,0.98681640625,1.953125,0.823974609375,-0.091552734375,3.41
1024,0.020751953125,-0.086181640625,0.9853515625,2.288818359375,0.885009765625,-0.18310546875,3.4133333333333336
1025,0.02001953125,-0.08740234375,0.98828125,2.13623046875,1.0986328125,0.06103515625,3.4166666666666665
1026,0.01904296875,-0.079345703125,0.9833984375,2.0751953125,0.8544921875,-0.1220703125,3.42
1027,0.021240234375,-0.087890625,0.98583984375,2.105712890625,0.946044921875,0.1220703125,3.4233333333333333
1028,0.015380859375,-0.078369140625,0.982421875,2.166748046875,1.03759765625,-0.06103515625,3.4266666666666667
1029,0.017822265625,-0.07568359375,0.980224609375,1.953125,0.823974609375,0.030517578125,3.43
1030,0.01416015625,-0.083740234375,0.983154296875,2.105712890625,0.9765625,-0.1220703125,3.433333333333333
1031,0.01953125,-0.09033203125,0.987060546875,1.953125,0.8544921875,0.0,3.4366666666666665
1032,0.023681640625,-0.071044921875,1.0,2.105712890625,0.885009765625,-0.152587890625,3.44
1033,0.017822265625,-0.0849609375,0.9658203125,2.227783203125,1.03759765625,0.0,3.4433333333333334
1034,0.016357421875,-0.08349609375,1.000732421875,2.166748046875,0.885009765625,-0.18310546875,3.4466666666666668
1035,0.016845703125,-0.096435546875,0.969482421875,2.044677734375,0.8544921875,0.0,3.45
1036,0.022216796875,-0.08203125,0.986572265625,2.01416015625,1.251220703125,-0.152587890625,3.453333333333333
1037,0.0205078125,-0.088623046875,0.978271484375,2.105712890625,0.79345703125,-0.06103515625,3.4566666666666666
1038,0.02001953125,-0.0947265625,0.98388671875,2.3193359375,0.9765625,0.0,3.46
1039,0.018798828125,-0.073974609375,0.991943359375,1.983642578125,1.15966796875,0.091552734375,3.4633333333333334
1040,0.021240234375,-0.080810546875,0.9765625,1.983642578125,0.823974609375,-0.091552734375,3.466666666666667
1041,0.019775390625,-0.073974609375,0.989990234375,2.13623046875,0.9765625,-0.244140625,3.47
1042,0.0205078125,-0.082763671875,0.98046875,2.166748046875,0.946044921875,0.0,3.473333333333333
1043,0.02099609375,-0.0849609375,0.991455078125,2.0751953125,0.946044921875,-0.06103515625,3.4766666666666666
1044,0.02099609375,-0.092041015625,0.984619140625,2.25830078125,0.9765625,0.1220703125,3.48
1045,0.015869140625,-0.086181640625,0.9833984375,2.288818359375,0.946044921875,-0.244140625,3.4833333333333334
1046,0.02099609375,-0.08251953125,0.98828125,2.044677734375,1.0986328125,-0.030517578125,3.486666666666667
1047,0.01953125,-0.089111328125,0.9716796875,2.288818359375,0.91552734375,-0.274658203125,3.49
1048,0.018798828125,-0.088623046875,0.986328125,2.197265625,1.0986328125,-0.091552734375,3.493333333333333
1049,0.02099609375,-0.087646484375,0.98046875,2.044677734375,0.823974609375,-0.274658203125,3.4966666666666666
1050,0.017333984375,-0.089111328125,0.984375,2.105712890625,1.03759765625,0.1220703125,3.5
1051,0.01806640625,-0.07763671875,0.980712890625,2.25830078125,1.007080078125,-0.18310546875,3.5033333333333334
1052,0.015625,-0.0869140625,0.974365234375,2.288818359375,0.79345703125,-0.274658203125,3.506666666666667
1053,0.017333984375,-0.07666015625,0.982666015625,2.288818359375,1.03759765625,-0.06103515625,3.51
1054,0.0224609375,-0.0859375,0.98291015625,2.13623046875,0.8544921875,0.030517578125,3.513333333333333
1055,0.0234375,-0.08251953125,0.98095703125,2.227783203125,0.9765625,-0.152587890625,3.5166666666666666
1056,0.017333984375,-0.07958984375,0.982666015625,2.044677734375,1.03759765625,-0.030517578125,3.52
1057,0.021728515625,-0.0859375,0.978515625,2.197265625,1.068115234375,-0.30517578125,3.5233333333333334
1058,0.017822265625,-0.08740234375,0.9912109375,2.166748046875,1.03759765625,-0.1220703125,3.526666666666667
1059,0.025146484375,-0.074462890625,0.983154296875,2.197265625,0.762939453125,-0.244140625,3.53
1060,0.01806640625,-0.090087890625,0.9833984375,2.13623046875,0.8544921875,-0.030517578125,3.533333333333333
1061,0.019287109375,-0.087890625,0.980712890625,2.288818359375,0.823974609375,-0.091552734375,3.5366666666666666
1062,0.0185546875,-0.09130859375,0.987548828125,2.044677734375,1.007080078125,-0.06103515625,3.54
1063,0.021484375,-0.081787109375,0.98388671875,2.166748046875,0.9765625,-0.1220703125,3.5433333333333334
1064,0.015380859375,-0.087158203125,0.98193359375,2.105712890625,0.885009765625,-0.1220703125,3.546666666666667
1065,0.020751953125,-0.084716796875,0.980712890625,1.983642578125,0.885009765625,-0.091552734375,3.55
1066,0.02392578125,-0.094482421875,0.980712890625,2.166748046875,0.8544921875,-0.3662109375,3.5533333333333332
1067,0.01806640625,-0.085205078125,0.985107421875,2.288818359375,1.007080078125,0.152587890625,3.5566666666666666
1068,0.014404296875,-0.0859375,0.9833984375,2.288818359375,1.007080078125,-0.091552734375,3.56
1069,0.02294921875,-0.083740234375,0.98583984375,2.044677734375,0.9765625,-0.18310546875,3.5633333333333335
1070,0.018798828125,-0.0791015625,0.981689453125,2.01416015625,1.007080078125,-0.030517578125,3.566666666666667
1071,0.019775390625,-0.09765625,0.981689453125,2.197265625,1.007080078125,0.030517578125,3.57
1072,0.016357421875,-0.075439453125,0.978271484375,2.166748046875,1.007080078125,-0.152587890625,3.5733333333333333
1073,0.016357421875,-0.083251953125,0.984130859375,2.227783203125,1.129150390625,0.030517578125,3.5766666666666667
1074,0.01953125,-0.090576171875,0.981201171875,2.01416015625,0.79345703125,0.0,3.58
1075,0.014404296875,-0.089599609375,0.9853515625,2.044677734375,0.885009765625,-0.1220703125,3.5833333333333335
1076,0.0166015625,-0.089599609375,0.9775390625,2.105712890625,0.91552734375,0.0,3.5866666666666664
1077,0.0185546875,-0.084716796875,0.9814453125,2.25830078125,1.068115234375,0.0,3.59
1078,0.01513671875,-0.0849609375,0.9873046875,2.197265625,1.0986328125,-0.18310546875,3.5933333333333333
1079,0.019287109375,-0.088134765625,0.982666015625,2.25830078125,0.9765625,0.0,3.5966666666666667
1080,0.0244140625,-0.083740234375,0.98583984375,2.13623046875,0.946044921875,-0.213623046875,3.6
1081,0.021484375,-0.088623046875,0.979736328125,2.166748046875,1.0986328125,-0.06103515625,3.6033333333333335
1082,0.015625,-0.080322265625,0.982177734375,2.227783203125,0.8544921875,-0.06103515625,3.6066666666666665
1083,0.018310546875,-0.0888671875,0.984619140625,2.197265625,0.9765625,-0.244140625,3.61
1084,0.020263671875,-0.08984375,0.980224609375,2.13623046875,0.91552734375,-0.06103515625,3.6133333333333333
1085,0.024658203125,-0.089111328125,0.9853515625,2.166748046875,1.0986328125,-0.030517578125,3.6166666666666667
1086,0.01708984375,-0.090576171875,0.9833984375,2.166748046875,0.79345703125,-0.244140625,3.62
1087,0.022705078125,-0.0869140625,0.982666015625,2.044677734375,1.03759765625,-0.1220703125,3.6233333333333335
1088,0.021240234375,-0.0859375,0.9892578125,2.105712890625,0.946044921875,-0.152587890625,3.6266666666666665
1089,0.021728515625,-0.087158203125,0.989501953125,1.922607421875,0.9765625,0.06103515625,3.63
1090,0.014892578125,-0.084716796875,0.982666015625,2.01416015625,0.91552734375,-0.030517578125,3.6333333333333333
1091,0.017578125,-0.08740234375,0.980712890625,2.25830078125,1.007080078125,-0.457763671875,3.6366666666666667
1092,0.017578125,-0.088134765625,0.982421875,2.197265625,0.91552734375,0.030517578125,3.64
1093,0.023681640625,-0.083251953125,0.98828125,2.227783203125,1.068115234375,-0.18310546875,3.6433333333333335
1094,0.0205078125,-0.0849609375,0.980712890625,2.13623046875,0.8544921875,-0.1220703125,3.6466666666666665
1095,0.018798828125,-0.0908203125,0.985595703125,1.953125,0.946044921875,-0.091552734375,3.65
1096,0.018310546875,-0.089111328125,0.978271484375,2.25830078125,0.79345703125,-0.030517578125,3.6533333333333333
1097,0.02099609375,-0.082275390625,0.974853515625,2.105712890625,0.91552734375,0.030517578125,3.6566666666666667
1098,0.01708984375,-0.08740234375,0.98046875,2.25830078125,0.8544921875,-0.06103515625,3.66
1099,0.015625,-0.08154296875,0.98779296875,2.13623046875,1.068115234375,-0.18310546875,3.6633333333333336
1100,0.02197265625,-0.080810546875,0.981201171875,2.0751953125,0.885009765625,-0.091552734375,3.6666666666666665
1101,0.02294921875,-0.08251953125,0.98486328125,2.166748046875,0.79345703125,-0.030517578125,3.67
1102,0.0283203125,-0.087646484375,0.98388671875,2.288818359375,1.068115234375,-0.030517578125,3.6733333333333333
1103,0.02197265625,-0.08642578125,0.98828125,2.105712890625,1.068115234375,-0.06103515625,3.6766666666666667
1104,0.0185546875,-0.074951171875,0.984375,2.227783203125,0.91552734375,-0.091552734375,3.68
1105,0.0205078125,-0.08642578125,0.984375,2.166748046875,0.8544921875,-0.152587890625,3.683333333333333
1106,0.01708984375,-0.080322265625,0.980712890625,2.13623046875,0.9765625,-0.06103515625,3.6866666666666665
1107,0.013916015625,-0.079345703125,0.9794921875,2.01416015625,0.79345703125,-0.30517578125,3.69
1108,0.019775390625,-0.083740234375,0.984130859375,2.01416015625,0.91552734375,0.152587890625,3.6933333333333334
1109,0.021240234375,-0.089599609375,0.988525390625,2.0751953125,1.0986328125,-0.18310546875,3.6966666666666668
1110,0.01416015625,-0.089599609375,0.985107421875,2.25830078125,0.91552734375,-0.1220703125,3.7
1111,0.026123046875,-0.081787109375,0.983642578125,2.105712890625,0.9765625,0.06103515625,3.703333333333333
1112,0.01611328125,-0.08837890625,0.985595703125,2.166748046875,0.8544921875,-0.091552734375,3.7066666666666666
1113,0.01513671875,-0.080810546875,0.988037109375,2.197265625,0.8544921875,-0.1220703125,3.71
1114,0.01953125,-0.09423828125,0.98095703125,2.105712890625,1.007080078125,-0.42724609375,3.7133333333333334
1115,0.018798828125,-0.08935546875,0.982177734375,2.166748046875,0.9765625,-0.18310546875,3.716666666666667
1116,0.019287109375,-0.087890625,0.98095703125,2.288818359375,0.885009765625,0.030517578125,3.72
1117,0.022216796875,-0.078369140625,0.98095703125,2.166748046875,1.220703125,-0.091552734375,3.723333333333333
1118,0.025146484375,-0.08837890625,0.9892578125,2.0751953125,0.823974609375,-0.1220703125,3.7266666666666666
1119,0.021484375,-0.080810546875,0.982421875,2.227783203125,0.8544921875,0.0,3.73
1120,0.0224609375,-0.08349609375,0.982666015625,2.410888671875,1.03759765625,-0.030517578125,3.7333333333333334
1121,0.012451171875,-0.0869140625,0.98486328125,2.01416015625,0.8544921875,-0.152587890625,3.736666666666667
1122,0.0146484375,-0.0810546875,0.986328125,2.01416015625,1.007080078125,-0.18310546875,3.74
1123,0.0205078125,-0.085693359375,0.982666015625,2.166748046875,1.068115234375,-0.1220703125,3.743333333333333
1124,0.021240234375,-0.076904296875,0.982177734375,2.197265625,0.91552734375,0.06103515625,3.7466666666666666
1125,0.021484375,-0.085693359375,0.983642578125,1.983642578125,1.068115234375,-0.091552734375,3.75
1126,0.015625,-0.087158203125,0.98046875,2.166748046875,0.946044921875,0.0,3.7533333333333334
1127,0.02294921875,-0.08251953125,0.98046875,2.227783203125,0.91552734375,-0.18310546875,3.756666666666667
1128,0.02099609375,-0.084716796875,0.978759765625,2.105712890625,0.9765625,-0.18310546875,3.76
1129,0.01806640625,-0.080810546875,0.982666015625,2.13623046875,1.03759765625,-0.030517578125,3.763333333333333
1130,0.013427734375,-0.087158203125,0.981201171875,2.25830078125,0.823974609375,-0.091552734375,3.7666666666666666
1131,0.023193359375,-0.083740234375,0.98095703125,2.3193359375,0.9765625,0.030517578125,3.77
1132,0.0224609375,-0.085205078125,0.979248046875,2.01416015625,0.8544921875,0.030517578125,3.7733333333333334
1133,0.014404296875,-0.089599609375,0.971923828125,2.166748046875,1.007080078125,-0.091552734375,3.776666666666667
1134,0.0166015625,-0.076171875,0.982666015625,2.0751953125,1.03759765625,-0.091552734375,3.78
1135,0.019775390625,-0.083984375,0.99462890625,2.166748046875,1.068115234375,-0.244140625,3.783333333333333
1136,0.022216796875,-0.084228515625,0.9833984375,2.044677734375,1.15966796875,-0.213623046875,3.7866666666666666
1137,0.01318359375,-0.08349609375,0.9853515625,2.288818359375,1.03759765625,-0.091552734375,3.79
1138,0.017333984375,-0.084716796875,0.98291015625,1.89208984375,0.91552734375,-0.030517578125,3.7933333333333334
1139,0.017578125,-0.089599609375,0.984375,2.288818359375,1.03759765625,-0.06103515625,3.796666666666667
1140,0.020263671875,-0.080322265625,0.986328125,2.166748046875,0.946044921875,-0.152587890625,3.8
1141,0.017578125,-0.083251953125,0.988037109375,2.13623046875,0.9765625,-0.18310546875,3.8033333333333332
1142,0.01806640625,-0.08935546875,0.9833984375,2.227783203125,0.946044921875,0.091552734375,3.8066666666666666
1143,0.020751953125,-0.08251953125,0.986328125,2.227783203125,0.91552734375,-0.335693359375,3.81
1144,0.017578125,-0.081787109375,0.984619140625,2.044677734375,0.885009765625,-0.030517578125,3.8133333333333335
1145,0.020263671875,-0.083251953125,0.981689453125,2.105712890625,0.946044921875,-0.244140625,3.816666666666667
1146,0.01904296875,-0.086669921875,0.982666015625,1.953125,0.91552734375,-0.30517578125,3.82
1147,0.0185546875,-0.0791015625,0.986328125,2.3193359375,0.701904296875,-0.091552734375,3.8233333333333333
1148,0.013427734375,-0.09033203125,0.97802734375,2.0751953125,0.9765625,0.0,3.8266666666666667
1149,0.0224609375,-0.087646484375,0.984619140625,2.166748046875,0.91552734375,-0.06103515625,3.83
1150,0.019775390625,-0.0810546875,0.98681640625,2.197265625,1.0986328125,-0.274658203125,3.8333333333333335
1151,0.018798828125,-0.088134765625,0.98486328125,1.922607421875,1.007080078125,0.0,3.8366666666666664
1152,0.0166015625,-0.090576171875,0.983642578125,2.01416015625,0.885009765625,-0.30517578125,3.84
1153,0.01904296875,-0.078125,0.983642578125,2.105712890625,1.15966796875,-0.152587890625,3.8433333333333333
1154,0.02001953125,-0.0869140625,0.981201171875,1.983642578125,0.762939453125,-0.18310546875,3.8466666666666667
1155,0.021240234375,-0.08056640625,0.98828125,2.13623046875,0.79345703125,-0.274658203125,3.85
1156,0.020751953125,-0.084716796875,0.983154296875,2.166748046875,1.007080078125,-0.152587890625,3.8533333333333335
1157,0.018310546875,-0.084716796875,0.984130859375,2.13623046875,0.9765625,0.0,3.8566666666666665
