counter,ax,ay,az,gx,gy,gz
231915,-0.780623053125,0.437998994375,0.1853373925,-15.098571778125,56.3354492225,48.71368408125
231918,-0.93809375625,0.31666110375,0.160679189375,-7.80487060625,71.807861331875,14.65606689375
231921,-1.033064459375,0.278331025625,0.138218251875,8.094787596875,74.035644535,-40.5807495125
231924,-1.116560553125,0.311534150625,0.161167470625,25.0930786125,55.17578125375,-60.53924560625
231927,-0.93565235,0.460459931875,0.152866689375,16.517639159375,34.149169925625,-35.789489746875
231930,-0.984236334375,0.392100556875,0.156284658125,-12.718200684375,28.350830081875,-8.78143310625
231933,-0.985212896875,0.430186494375,0.166050283125,-19.920349121875,21.301269535,-51.353454590625
231936,-1.0850664125,0.51050876,0.16873583,-38.841247559375,1.281738285,-64.292907715625
231939,-0.9795976625,0.6150009475,0.18094286125,-70.579528809375,-15.106201168125,-97.77069091875
231942,-1.0889726625,0.373057588125,0.129917470625,-114.67742920000002,-33.14208984,-84.95330810625
231945,-1.057478521875,0.4021103225,0.232456533125,-129.75311279375,-44.891357418125,-114.524841309375
231948,-1.196638678125,0.391612275625,0.27957567375000003,-138.78631591875,-76.019287105625,-212.059020996875
231951,-0.964949225,0.34107516625,0.23758348625,-157.737731934375,-108.612060543125,-220.08514404375
231954,-1.012556646875,-0.106922880625,0.168003408125,-109.519958496875,-111.1450195275,-195.30487060625
231957,-1.1299882875,-0.03880764625,0.25320848625000003,-60.9664917,-133.453369136875,-176.475524903125
231960,-0.980818365625,0.39478610375,0.34988817375000003,-86.753845215625,-174.407958980625,-77.62908935625
231963,-0.772322271875,0.205088838125,0.20828661125,-115.59295654375,-182.525634761875,34.706115721875
231966,-0.6583085999999999,-0.105458036875,0.171909658125,-96.9772338875,-151.214599605625,86.738586425
231969,-0.64512500625,-0.220692411875,0.184116689375,-38.01727295,-115.875244136875,87.77618408125
231972,-0.757673834375,-0.114735380625,0.21951708,5.775451659375,-77.331542965,74.745178221875
231975,-0.8370195375,0.0915634475,0.32767137687500003,9.52911376875,-47.11914062125,44.960021971875
231978,-0.86533985,0.145030244375,0.35501512687500003,-1.914978028125,-44.55566405875,4.615783690625
231981,-1.091658209375,0.3083603225,0.396030751875,-28.80096435625,-77.39257812125,-16.47186279375
231984,-1.143416021875,0.352061494375,0.47342333,-69.480895996875,-137.237548824375,-24.559020996875
231987,-0.8018632875,0.120616181875,0.28201708000000003,-86.814880371875,-111.022949215,-41.343688965625
231990,-0.745466803125,0.17505954125,0.3865092675,-88.523864746875,-49.31640624625,-37.559509278125
231993,-0.98008594375,0.251963838125,0.577671376875,-98.045349121875,-45.593261715,-27.488708496875
231996,-0.9366289125,0.183116181875,0.477085439375,-117.576599121875,-58.746337886875,-23.155212403125
231999,-0.88828906875,0.1150009475,0.43680223625,-139.823913575,-57.00683593375,-67.25311279375
232002,-0.798689459375,0.043956025625,0.46219286125,-146.59881591875,-22.796630855625,-100.3952026375
232005,-0.842634771875,-0.006336943125,0.463901845625,-134.422302246875,4.2419433631249985,-67.527770996875
232008,-0.84141406875,-0.080067411875,0.451694814375,-102.989196778125,19.866943363125,-20.50018310625
232011,-0.743513678125,-0.116200224375,0.44607958,-73.417663575,34.698486331875,4.40216064375
232014,-0.72715625625,-0.108876005625,0.410190908125,-54.1305542,46.966552738125,6.935119628125
232017,-0.743025396875,-0.12474514625,0.4470561425,-34.690856934375,60.11962891,21.4309692375
232020,-0.8506914125,-0.1486709275,0.419956533125,-8.567810059375,70.953369144375,16.12091064375
232023,-0.900251959375,-0.103504911875,0.450718251875,9.9563598625,69.39697266,10.87188720625
232026,-0.898787115625,-0.057606474375,0.484897939375,22.46856689375,44.49462891,2.7236938468750003
232029,-1.060408209375,-0.014149443125,0.50076708,26.98516845625,36.468505863125,-7.225036621875
232032,-1.01133594375,0.006846650625,0.51688036125,29.18243408125,-1.83105468375,-8.72039795
232035,-0.953230475,0.060069306875,0.478550283125,11.390686034375,-9.21630859,1.136779784375
232038,-0.962751959375,0.043467744375,0.437534658125,11.84844970625,2.166748050625,3.883361815625
232041,-0.972517584375,0.08228610375,0.435581533125,4.554748534375,4.4860839881249985,13.648986815625
232044,-0.879255865625,0.25220797875,0.420444814375,-45.2194213875,2.258300785,-19.920349121875
232047,-0.745466803125,0.384776338125,0.385288564375,-130.516052246875,31.066894535,-70.762634278125
232050,-0.768904303125,0.1989853225,0.377476064375,-195.213317871875,54.44335937875,-96.2448120125
232053,-0.843123053125,-0.086903349375,0.37430223625,-201.622009278125,51.2084960975,-97.496032715625
232056,-0.941755865625,-0.267079130625,0.31155809562500003,-171.62322998125,36.3159179725,-59.44061279375
232059,-1.1192461,-0.34495999,0.391147939375,-119.834899903125,-2.593994136875,-1.640319825
232062,-1.003767584375,-0.370350615,0.35403856437500003,-53.672790528125,-34.088134761875,31.044006346875
232065,-0.937361334375,-0.255360380625,0.43582567375,-7.3776245125,-27.83203124625,24.9710083
232068,-0.938337896875,-0.1564834275,0.467808095625,-4.112243653125,-12.390136715,-0.35858154374999995
232071,-1.11192188125,-0.186756865,0.471714345625,5.86700439375,-30.548095699375,2.5711059562500003
232074,-0.94981250625,-0.245106474375,0.390659658125,36.903381346875,-28.594970699375,46.974182128125
232077,-0.71348438125,-0.22533108375,0.26907762687500003,71.8460083,50.079345706875,53.993225096875
232080,-0.580427740625,-0.062001005625,0.19998583,63.6672973625,132.049560550625,23.20098876875
232083,-0.342146490625,0.20435641625,0.193882314375,10.50567626875,214.7827148475,-2.037048340625
232086,-0.76719531875,0.0446884475,0.401890126875,-47.23358154375,254.730224613125,-37.620544434375
232089,-0.912458990625,-0.011708036875,0.33963426750000003,-64.0182495125,221.984863285,-51.658630371875
232092,-0.77793750625,-0.008045927500000001,0.139194814375,-77.75115966875,226.593017581875,-30.357360840625
232095,-1.17442188125,-0.077137724375,0.213657705,-82.5729370125,223.3276367225,-20.164489746875
232098,-1.4229570375,-0.16136624,0.225620595625,-72.6852417,151.397705081875,36.537170409375
232101,-1.472517584375,-0.36693264625,0.224644033125,-23.36883545,79.5288085975,18.959045409375
232104,-1.413435553125,-0.174793974375,0.1736186425,2.9678344718750003,9.52148437875,-16.990661621875
232107,-1.479353521875,-0.029774443125,0.29300340812500003,-4.112243653125,-74.859619136875,17.0364379875
232110,-1.35703906875,-0.026600615,0.30154833000000003,-21.995544434375,-156.951904293125,12.82501220625
232113,-1.13096485,-0.081043974375,0.174839345625,-26.6647338875,-196.71630859,-15.647888184375
232116,-1.01426563125,-0.15111233375,0.2263530175,-4.966735840625,-209.442138668125,-42.35076904375
232119,-0.893904303125,-0.119129911875,0.30862840812500003,9.254455565625,-232.269287105625,-17.967224121875
232122,-0.668318365625,-0.072254911875,0.229526845625,14.90020751875,-223.57177734,-18.394470215625
232125,-0.294783209375,0.1325790725,0.095249501875,-23.2467651375,-159.2407226525,-21.9039917
232128,-0.29356250625,0.0173446975,0.167515126875,-70.91522216875,-22.613525386875,-41.526794434375
232131,-0.80625781875,-0.20482327125,0.34598192375000003,-68.199157715625,7.9040527381249985,-78.636169434375
232134,-1.1378007875,-0.28245999,0.374546376875,-40.733337403125,-44.4946289025,-39.634704590625
232137,-1.218855475,-0.2443740525,0.34402879875000003,-18.66912841875,-89.996337886875,35.77423095625
232140,-1.14024219375,-0.3830459275,0.39285692375,37.0559692375,-150.4516601525,33.08868408125
232143,-0.77940235,-0.26634670875,0.25735887687500003,55.91583251875,-101.8676757775,19.203186034375
232146,-0.95908985,-0.314930693125,0.42996629875,80.360412596875,-66.7114257775,-11.34490966875
232149,-0.930525396875,-0.1955459275,0.49344286125,101.844787596875,-97.625732418125,-3.89862060625
232152,-0.788923834375,-0.145008818125,0.39871629875,109.62677001875,-89.84374999625,40.809631346875
232155,-0.797224615625,-0.14232327125,0.4275248925,122.169494628125,-48.95019530875,87.04376220625
232158,-1.03965625625,-0.2033584275,0.502476064375,150.367736815625,-26.30615234,72.853088378125
232160,-1.05430469375,-0.112782255625,0.50711473625,161.8118286125,-26.824951168125,67.054748534375
232163,-0.816511725,0.008555634999999999,0.42654833,142.311096190625,1.190185550625,29.9758911125
232166,-0.70762500625,0.061534150625,0.436069814375,118.202209471875,22.369384769375,22.254943846875
232169,-0.75742969375,0.15113376,0.445347158125,92.445373534375,42.083740238125,27.320861815625
232172,-0.788435553125,0.188975556875,0.448765126875,55.73272705,33.8745117225,23.414611815625
232175,-0.901228521875,0.16627047875,0.4978373925,17.21954345625,27.40478516,23.963928221875
232178,-0.91953906875,0.11451266625,0.53982958,-6.797790528125,20.812988285,44.471740721875
232181,-0.96543750625,0.00318454125,0.482456533125,-8.628845215625,18.585205081875,71.54083251875
232184,-0.837263678125,-0.20482327125,0.398960439375,18.5012817375,17.913818363125,80.81817626875
232187,-0.667830084375,-0.1428115525,0.394077626875,74.531555175,25.604248050625,90.858459471875
232190,-0.5889726625,-0.017079130625,0.30350145500000003,105.35430908125,69.0307617225,97.17559814375
232193,-0.572126959375,0.024424775625,0.26981004875000003,119.544982909375,124.420166019375,93.360900878125
232196,-0.529158209375,0.048838838125,0.35013231437500003,134.77325439375,168.09082031625,73.707580565625
232199,-0.56211719375,0.115245088125,0.20047411125,129.249572753125,210.845947269375,35.7131958
232202,-0.957869146875,0.11597751,0.29495653312500003,114.784240721875,201.477050785,-36.9186401375
232205,-1.1788164125,0.18189547875,0.30618700187500003,94.24591064375,143.585205081875,-98.472595215625
232208,-1.509626959375,0.4040634475,0.28787645500000003,92.2317504875,63.23242187875,-132.2555542
232211,-1.43711719375,0.6091415725,0.418491689375,-30.5709838875,-4.5471191368750015,-118.03436279375
232214,-1.533064459375,0.368174775625,0.45633348625,-95.5123901375,-82.214355465,-135.765075684375
232217,-1.42344531875,0.275401338125,0.511753408125,-134.117126465625,-135.86425780875,-151.60369873125
232220,-1.062849615625,0.0153915725,0.31668504875000003,-109.153747559375,-123.47412109,-136.16180419999998
232223,-1.056013678125,0.08716891625,0.3767436425,-83.7936401375,-95.82519530875,-8.29315185625
232226,-1.119001959375,0.03834079125,0.44949754875,-66.734313965625,-118.621826168125,72.242736815625
232229,-0.926130865625,-0.066883818125,0.373813955,-68.077087403125,-122.3754882775,11.72637939375
232232,-0.699568365625,-0.00951077125,0.26492723625000003,-77.781677246875,-83.404541011875,-61.546325684375
232235,-0.494001959375,-0.07494045875,0.1618998925,-68.077087403125,-1.89208984,-74.974060059375
232238,-0.64903125625,-0.037586943125,0.41043504875,-64.964294434375,48.797607425625,-42.22869873125
232241,-0.77696094375,-0.128407255625,0.29837450187500003,-37.773132325,49.86572266,-13.60321045
232244,-0.855818365625,-0.16136624,0.32449754875000003,-7.19451904375,41.87011719125,19.4778442375
232247,-0.904646490625,-0.120594755625,0.34134325187500003,22.285461425,41.1987304725,17.95196533125
232250,-0.976912115625,0.00416110375,0.34378465812500003,34.400939940625,44.8608398475,7.667541503125
232253,-0.937361334375,0.08619235375,0.35672411125000003,18.68438720625,43.82324219125,-5.882263184375
232256,-0.919783209375,0.140147431875,0.4158061425,-6.187438965625,24.139404300625,-7.19451904375
232259,-0.879744146875,0.140147431875,0.369907705,-36.338806153125,13.763427738125,-13.145446778125
232262,-0.79453906875,0.159678681875,0.31546434562500003,-68.59588623125,22.247314456875,-16.746520996875
232265,-0.844099615625,0.08472751,0.375522939375,-96.4889526375,38.665771488125,-28.1295776375
232268,-0.800642584375,0.025401338125,0.28470262687500003,-120.10955810625,57.73925781625,-39.451599121875
232271,-0.983259771875,-0.082997099375,0.35916551750000003,-131.980895996875,38.08593750375,-51.353454590625
232274,-0.862654303125,-0.14915920875,0.29007372062500003,-117.2409057625,44.3725585975,-44.822692871875
232277,-0.89219531875,-0.2756240525,0.26272997062500003,-79.5211792,46.93603516,-18.516540528125
232280,-1.16221485,-0.3420303025,0.29056200187500003,-31.578063965625,36.163330081875,8.033752440625
232283,-1.2676836,-0.24388577125,0.37723192375,-0.450134278125,-16.54052734,-39.756774903125
232286,-1.15000781875,-0.1799209275,0.30032762687500003,8.125305175,-26.97753905875,-77.110290528125
232289,-1.2120195375,-0.257069365,0.400913564375,28.0227661125,-70.983886715,-66.03240966875
232292,-1.118025396875,-0.18724514625,0.34061083000000003,52.1926879875,-95.82519530875,-12.107849121875
232295,-0.8926835999999999,-0.0998428025,0.34793504875000003,80.909729003125,-100.70800780875,45.265197753125
232298,-0.992048834375,-0.164540068125,0.31106981437500003,90.492248534375,-69.427490230625,89.24102783125
232301,-1.066267584375,-0.144520536875,0.372593251875,101.539611815625,-73.3032226525,81.9778442375
232304,-0.945417975,-0.061512724375,0.32718309562500003,88.600158690625,-72.69287109,8.705139159375
232307,-0.779158209375,0.05738376,0.30984911125000003,51.063537596875,-51.3305664025,-35.39276123125
232310,-0.686384771875,-0.041004911875,0.31717333000000003,34.767150878125,-13.54980468375,-23.9791870125
232313,-0.73106250625,-0.079090849375,0.30106004875000003,40.565490721875,16.815185550625,3.2119750968750003
232316,-0.74961719375,-0.015614286875,0.377720205,41.786193846875,40.28320312875,1.96075439375
232319,-0.912947271875,-0.0060928025,0.42703661125,32.447814940625,42.9077148475,-11.58905029375
232322,-0.962263678125,0.0095321975,0.44461473625,18.165588378125,26.458740238125,-25.169372559375
232325,-0.93125781875,0.007334931875,0.37820848625,2.8152465812500003,26.42822266,-21.385192871875
232328,-0.921736334375,-0.017567411875,0.34354051750000003,4.5852661125,49.163818363125,-11.58905029375
232331,-0.90782031875,0.061045869375,0.33133348625000003,-6.76727295,57.525634769375,-13.572692871875
232334,-0.773542975,0.167491181875,0.29202684562500003,-47.630310059375,70.43457031625,-26.6647338875
232337,-0.78770313125,0.17408297875,0.31692918937500003,-91.575622559375,85.418701175625,-53.611755371875
232340,-0.8067460999999999,0.1325790725,0.32132372062500003,-141.990661621875,88.592529300625,-69.45037841875
232343,-0.87559375625,-0.042958036875,0.26150926750000003,-168.0221557625,116.33300781625,-75.9811401375
232346,-0.808699225,-0.18822170875,0.29251512687500003,-142.265319825,107.879638675625,-56.327819825
232349,-0.85899219375,-0.217762724375,0.27493700187500003,-121.51336670000002,97.930908206875,2.7542114250000003
232352,-1.044783209375,-0.408192411875,0.22342333,-68.10760498125,81.60400391,18.287658690625
232355,-1.05918750625,-0.4025771775,0.24832567375,-16.6549682625,47.271728519375,27.168273925
232358,-1.196638678125,-0.35033108375,0.221470205,22.254943846875,13.885498050625,32.96661376875
232361,-1.42051563125,-0.40111233375,0.34207567375000003,68.61114501875,-69.427490230625,32.081604003125
232364,-1.344587896875,-0.2892959275,0.36844286125,123.11553955,-135.833740230625,39.7415161125
232367,-0.8223710999999999,0.049815400625,0.19168504875,104.713439940625,-115.5395507775,36.38458251875
232370,-0.91270313125,-0.048329130625,0.2243998925,82.435607909375,-73.48632812125,58.7844848625
232373,-1.13731250625,-0.139149443125,0.436558095625,73.49395751875,-141.510009761875,41.175842284375
232376,-0.941755865625,-0.030751005625,0.28689989250000003,69.129943846875,-154.937744136875,10.780334471875
232379,-0.941755865625,0.0525009475,0.237095205,49.3850708,-71.472167965,29.579162596875
232382,-1.261580084375,-0.0783584275,0.3865092675,45.17364501875,-48.95019530875,27.22930908125
232385,-1.179060553125,-0.085926786875,0.37576708,38.917541503125,-78.4301757775,30.250549315625
232388,-0.827009771875,-0.030751005625,0.40262254875,29.212951659375,-83.038330074375,7.850646971875
232391,-0.66953906875,0.0212509475,0.26541551750000003,15.907287596875,-60.028076168125,-11.22283935625
232394,-0.668806646875,0.0368759475,0.34085497062500003,-3.2272338875,-21.697998043125,-30.14373779375
232397,-0.666853521875,0.02613376,0.35770067375000003,-18.8522338875,-1.647949215,-30.0827026375
232400,-0.632917975,0.051768525625,0.34402879875000003,-30.906677246875,30.578613285,-0.694274903125
232403,-0.7569414125,-0.02513577125,0.3630717675,-35.606384278125,64.51416016,29.121398925
232406,-0.8379960999999999,-0.143543974375,0.4099467675,-17.265319825,85.845947269375,43.22052001875
232409,-0.93614063125,-0.20433499,0.32498583000000003,8.888244628125,83.74023437875,55.976867675
232412,-0.89219531875,-0.187489286875,0.31766161125000003,52.040100096875,70.709228519375,75.08087158125
232415,-0.806013678125,-0.15697170875,0.33157762687500003,91.224670409375,60.821533206875,103.88946533125
232418,-0.740583990625,-0.11595608375,0.27127489250000003,129.432678221875,83.37402344125,140.785217284375
232421,-0.7725664125,-0.133290068125,0.25955614250000003,164.863586425,97.259521488125,142.616271971875
232424,-0.738142584375,-0.032215849375,0.22098192375,188.209533690625,120.0561523475,111.0305786125
232427,-0.729353521875,0.0935165725,0.24930223625,169.410705565625,131.927490238125,39.4973754875
232430,-0.884626959375,0.20826266625,0.27078661125000003,121.894836425,123.53515625375,-46.165466309375
232433,-1.248884771875,0.30591891625,0.33694872062500003,86.647033690625,84.6557617225,-78.84979248125
232436,-1.4639726625,0.37037204125,0.26614793937500003,42.48809814375,27.89306641,-94.993591309375
232439,-1.447615240625,0.481211885,0.420688955,-48.1491088875,-58.685302730625,-111.167907715625
232442,-1.42442188125,0.354991181875,0.38748583,-121.177673340625,-131.71386718375,-144.126892090625
232445,-0.99278125625,0.015147431875,0.13504442375,-113.51776123125,-87.554931636875,-166.587829590625
232448,-1.03379688125,0.110118135,0.30252489250000003,-92.88787841875,-45.2270507775,-76.927185059375
232451,-1.359724615625,0.075694306875,0.395054189375,-73.204040528125,-75.592041011875,16.090393065625
232454,-1.037947271875,-0.03392483375,0.29397997062500003,-64.32342529375,-138.61083984,8.85772705
232457,-0.855574225,-0.026844755625,0.26956590812500003,-72.776794434375,-115.264892574375,-39.42108154375
232460,-0.8506914125,-0.112782255625,0.29617723625000003,-69.541931153125,-79.83398437125,-52.513122559375
232463,-0.765486334375,-0.137684599375,0.2243998925,-44.456481934375,-49.56054687125,-31.5475463875
232466,-0.783552740625,-0.1310928025,0.27713426750000003,-24.436950684375,-23.2543945275,-12.535095215625
232469,-0.810896490625,-0.07591702125,0.31937059562500003,-18.882751465625,-3.7231445275,-6.1569213875
232472,-0.80821094375,-0.15599514625,0.30960497062500003,-4.173278809375,-4.1198730431250015,7.88116455
232475,-0.799666021875,-0.175282255625,0.28274950187500003,16.761779784375,11.505126956875,-4.783630371875
232478,-0.871199225,-0.1135146775,0.30911668937500003,34.67559814375,26.458740238125,-13.877868653125
232481,-0.899275396875,-0.051258818125,0.34720262687500003,41.2063598625,34.79003906625,-13.206481934375
232484,-0.873396490625,0.00220797875,0.34500536125000003,38.82598876875,37.7807617225,-12.840270996875
232487,-0.91660938125,-0.02415920875,0.33963426750000003,31.349182128125,42.6635742225,-11.070251465625
232490,-0.93711719375,-0.013172880625,0.31106981437500003,27.22930908125,33.1420898475,-13.755798340625
232493,-0.992048834375,-0.041981474375,0.424351064375,20.6985473625,22.003173831875,-18.54705810625
232496,-0.995466803125,-0.044422880625,0.34354051750000003,16.0598754875,11.993408206875,-19.065856934375
232499,-0.9835039125,-0.0451553025,0.35062059562500003,14.53399658125,1.1596679725,-17.784118653125
232502,-0.95664844375,-0.01292874,0.37625536125,9.620666503125,-1.34277343375,-25.230407715625
232505,-0.9395585999999999,0.0349228225,0.34793504875000003,-0.11444091874999995,-3.204345699375,-23.033142090625
232508,-0.8770585999999999,0.033213838125,0.31790575187500003,-12.413024903125,1.007080081875,-10.032653809375
232511,-0.82188281875,0.032725556875,0.29471239250000003,-22.972106934375,7.5378418006249985,-9.75799560625
232514,-0.81407031875,-0.0041396775,0.32352098625000003,-41.25213623125,29.632568363125,-18.455505371875
232517,-0.91367969375,-0.08372952125,0.27762254875000003,-41.770935059375,42.11425781625,-11.58905029375
232520,-1.0596757875,-0.104969755625,0.28958543937500003,-39.90936279375,27.34375000375,4.15802001875
232523,-1.176619146875,-0.093739286875,0.32425340812500003,-34.141540528125,-4.6386718712500015,30.34210205
232526,-1.136824225,-0.114735380625,0.33694872062500003,-28.55682373125,-34.210205074375,40.382385253125
232529,-1.066267584375,-0.178211943125,0.30814012687500003,-19.5846557625,-34.027099605625,-1.365661621875
232532,-1.05430469375,-0.18236233375,0.399937001875,0.526428221875,-42.144775386875,-10.7955932625
232535,-0.98496875625,-0.140126005625,0.377720205,15.480041503125,-53.009033199375,-3.684997559375
232538,-0.88047656875,-0.08324124,0.31277879875000003,22.285461425,-49.92675780875,5.836486815625
232541,-0.876814459375,-0.06322170875,0.33743700187500003,30.64727783125,-37.445068355625,8.522033690625
232544,-0.8213945375,-0.065418974375,0.32083543937500003,23.68927001875,-20.62988280875,5.62286376875
232547,-0.82188281875,-0.058094755625,0.33646043937500003,19.447326659375,3.814697269375,1.808166503125
232550,-0.91270313125,-0.1115615525,0.34134325187500003,18.68438720625,13.30566406625,-1.70135498125
232553,-0.884626959375,-0.08568264625,0.370640126875,25.550842284375,26.702880863125,-13.999938965625
232556,-1.00742969375,-0.041493193125,0.29520067375000003,24.9710083,36.651611331875,-12.351989746875
232559,-0.962751959375,-0.04466702125,0.25125536125000003,21.49200439375,53.863525394375,-6.004333496875
232562,-0.946638678125,0.016368135,0.217563955,12.58087158125,82.672119144375,-2.891540528125
232565,-0.914412115625,0.018077119375,0.202671376875,-1.640319825,95.916748050625,-9.361267090625
232568,-0.958845709375,-0.127430693125,0.0012553612500000033,0.9231567375,92.590332035,-34.9655151375
232571,-1.061873053125,-0.1369521775,0.25125536125000003,22.22442626875,37.994384769375,-39.29901123125
232574,-0.5147539125,0.09009860375,0.27542528312500003,17.494201659375,44.952392581875,-23.033142090625
232577,-1.0909257875,0.0017196974999999998,0.40359911125,4.188537596875,34.79003906625,7.850646971875
232580,-0.90489063125,-0.057118193125,0.25955614250000003,7.118225096875,24.810791019375,10.62774658125
232583,-1.20664844375,-0.1545303025,0.3650248925,23.902893065625,16.418457035,-6.8893432625
232586,-1.279158209375,-0.107411161875,0.4353373925,31.4407348625,-38.3911132775,-5.48553466875
232589,-0.903181646875,0.009288056875,0.30691942375000003,28.968811034375,-72.50976562125,-21.5377807625
232592,-0.69395313125,0.071788056875,0.25296434562500003,10.108947753125,-59.93652343375,-20.591735840625
232595,-0.845564459375,-0.02904202125,0.2419780175,-3.379821778125,-30.853271480625,-12.0162963875
232598,-1.05039844375,-0.119618193125,0.30081590812500003,1.869201659375,-30.059814449375,-5.943298340625
232601,-1.062849615625,-0.10716702125,0.33768114250000003,5.0735473625,-46.478271480625,1.564025878125
232604,-1.074080084375,-0.089100615,0.30667528312500003,5.683898925,-59.99755859,13.1301879875
232607,-1.16075000625,-0.14134670875,0.381382314375,5.92803955,-58.04443359,8.460998534375
232610,-0.8848710999999999,-0.1310928025,0.139438955,10.38360595625,-31.37207030875,11.146545409375
232613,-0.841169928125,-0.15599514625,0.099155751875,14.747619628125,21.514892581875,10.2005004875
232616,-0.816511725,-0.139881865,0.240269033125,36.842346190625,50.811767581875,-4.38690185625
232619,-0.73985156875,-0.050770536875,0.3943217675,54.20684814375,56.976318363125,-4.2037963875
232622,-0.7442460999999999,0.149180635,0.39578661125,28.9993286125,75.25634766,7.88116455
232625,-1.02207813125,0.0485946975,0.390659658125,2.4185180656250003,65.00244141,12.70294189375
232628,-1.002791021875,0.02466891625,0.31326708000000003,1.10626220625,59.9975585975,34.492492675
232631,-1.207869146875,-0.138661161875,0.30447801750000003,7.301330565625,49.468994144375,42.640686034375
232634,-1.577498053125,-0.04857327125,0.483433095625,20.179748534375,-45.16601562125,-7.92694091875
232637,-1.048201178125,0.14478610375,0.31668504875000003,-0.90789795,-123.16894530875,-18.760681153125
232640,-0.609236334375,0.080577119375,0.25857958000000003,-25.596618653125,-102.78320312125,-14.823913575
232643,-0.63828906875,-0.056629911875,0.23172411125,-26.878356934375,-57.61718749625,-24.34539795
232646,-0.84043750625,-0.093739286875,0.27444872062500003,-17.69256591875,-38.299560543125,-29.960632325
232649,-0.9835039125,-0.08861233375,0.34769090812500003,-13.389587403125,-40.5883789025,-22.239685059375
232652,-1.00352344375,-0.0549209275,0.31473192375000003,-16.380310059375,-42.877197261875,-6.675720215625
232654,-1.11094531875,-0.05736233375,0.423862783125,-16.563415528125,-55.084228511875,1.35040283125
232657,-0.93028125625,-0.016590849375,0.23904833,-30.75408935625,-49.285888668125,-3.074645996875
232660,-0.891951178125,0.091807588125,0.162144033125,-60.05096435625,-20.62988280875,-7.774353028125
232663,-0.8926835999999999,-0.038563505625,0.189976064375,-97.434997559375,30.609130863125,-44.212341309375
232666,-0.72422656875,-0.160633818125,0.29544481437500003,-86.692810059375,81.11572266,-110.557556153125
232669,-0.943220709375,-0.25511624,0.505405751875,-36.1862182625,76.78222656625,-74.57733154375
232672,-0.92246875625,-0.26829983375,0.387241689375,21.6751098625,60.760498050625,-26.23748779375
232675,-0.77012500625,-0.16673733375,0.31155809562500003,42.24395751875,84.1674804725,28.9993286125
232678,-1.101912115625,-0.066395536875,0.32254442375000003,51.124572753125,83.892822269375,31.166076659375
232681,-1.5577226625,-0.164051786875,0.450229970625,50.117492675,24.810791019375,41.75567626875
232684,-1.42442188125,-0.02464749,0.460972158125,43.617248534375,-88.470458980625,27.320861815625
232687,-0.866072271875,0.02466891625,0.32230028312500003,24.8489379875,-129.486083980625,13.008117675
232690,-0.529646490625,0.041026338125,0.27371629875000003,2.3574829093750003,-104.156494136875,0.5569458
232693,-0.617292975,-0.01146389625,0.22488817375,-13.206481934375,-55.633544918125,-2.586364746875
232696,-0.836287115625,-0.08861233375,0.30374559562500003,-18.760681153125,-30.21240234,6.813049315625
232699,-1.004744146875,-0.137684599375,0.35574754875000003,-12.62664795,-39.764404293125,11.573791503125
232702,-1.250349615625,-0.14427639625,0.49344286125,-2.616882325,-48.614501949375,13.099670409375
232705,-1.01621875625,-0.307606474375,0.28299364250000003,28.57208251875,-55.084228511875,-3.257751465625
232708,-0.75157031875,-0.366688505625,0.098179189375,87.40997314375,-12.725830074375,-6.370544434375
232711,-0.70762500625,-0.249256865,0.118198720625,150.062561034375,82.733154300625,64.52178955
232714,-0.73106250625,-0.012196318125,0.398960439375,164.283752440625,122.68066406625,117.408752440625
232717,-0.916365240625,0.3376571975,0.553257314375,119.51446533125,112.2436523475,44.56329345625
232720,-0.935408209375,0.431651338125,0.33401903312500003,19.1116333,116.485595706875,-5.332946778125
232723,-0.961042975,0.216807588125,0.30765184562500003,-39.878845215625,131.652832035,23.68927001875
232726,-1.31992969375,-0.070790068125,0.35574754875000003,-44.395446778125,89.172363285,35.743713378125
232729,-1.554548834375,-0.077626005625,0.361851064375,-17.662048340625,16.23535156625,-10.887145996875
232732,-1.769636725,0.00513766625,0.54031786125,-20.835876465625,-90.57617187125,-55.747985840625
232735,-1.006697271875,0.10425876,0.34451708000000003,-35.057067871875,-183.83789062125,-70.67108154375
232738,-0.46690235,0.128916963125,0.26834520500000003,-57.36541748125,-162.6586914025,-56.968688965625
232741,-0.5030351625,-0.020008818125,0.243198720625,-68.809509278125,-107.574462886875,-43.052673340625
232744,-0.741560553125,-0.1701553025,0.27737840812500003,-58.677673340625,-74.310302730625,-35.911560059375
232747,-0.95860156875,-0.13158108375,0.423374501875,-42.564392090625,-78.12499999625,-28.892517090625
232750,-0.973005865625,0.06373141625,0.39139208,-72.227478028125,-97.4731445275,-28.67889404375
232753,-0.767927740625,0.2263290725,0.27371629875000003,-147.2702026375,-81.390380855625,-49.522399903125
232756,-0.576033209375,0.262217744375,-0.019496591875,-237.632751465625,-0.5187988243750001,-48.973083496875
232759,-0.21836719375,-0.01244045875,-0.06173292,-271.873474121875,159.027099613125,-101.67694091875
232762,-1.0303789125,-0.31712795875,0.41629442375,-238.731384278125,213.470458988125,-94.444274903125
232765,-1.234724615625,-0.479969755625,0.51199754875,-184.98992919999998,145.812988285,-51.38397216875
232768,-1.03672656875,-0.327626005625,0.27933153312500003,-126.792907715625,109.25292969125,-4.50897216875
232771,-0.975935553125,-0.571278349375,0.186069814375,-45.2194213875,123.260498050625,34.706115721875
232774,-1.13340625625,-0.553211943125,0.26419481437500003,42.61016845625,101.31835937875,28.69415283125
232777,-1.44346485,-0.416493193125,0.27737840812500003,97.328186034375,43.21289062875,17.677307128125
232780,-1.4073320375,-0.21165920875,0.32767137687500003,121.22344970625,-8.6059570275,-9.75799560625
232783,-1.535017584375,0.015635713125,0.486362783125,94.9172973625,-114.5629882775,10.841369628125
232786,-1.17735156875,0.05982516625,0.365757314375,45.143127440625,-196.1059570275,58.60137939375
232789,-0.733748053125,-0.153309599375,0.27884325187500003,29.151916503125,-213.86718749625,66.65802001875
232792,-0.53477344375,-0.353016630625,0.29349168937500003,57.838439940625,-191.131591793125,51.185607909375
232795,-0.6924882875,-0.28392483375,0.4060405175,95.680236815625,-180.694580074375,66.566467284375
232798,-0.67002735,-0.254383818125,0.36453661125,131.7825317375,-197.937011715,94.520568846875
232801,-0.577498053125,-0.260731474375,0.28836473625000003,178.565979003125,-140.01464843375,114.784240721875
232804,-0.44395313125,-0.104481474375,0.0583842675,189.46075439375,-24.017333980625,78.407287596875
232807,-0.57774219375,-0.107411161875,0.0779155175,213.294982909375,117.095947269375,70.8694458
232810,-0.577498053125,-0.30150295875,0.11453661125,267.1585083,221.92382812875,52.98614501875
232813,-0.764021490625,-0.2658584275,0.194858876875,311.65313720625,262.481689456875,70.0149536125
232816,-1.020369146875,0.131846650625,0.2361186425,324.623107909375,233.703613285,61.317443846875
232819,-1.142927740625,0.651866181875,0.34183153312500003,232.887268065625,189.81933594125,48.377990721875
232822,-1.14707813125,0.578868135,0.34988817375000003,123.390197753125,149.78027344125,46.3333129875
232825,-1.17832813125,0.473399385,0.31155809562500003,42.579650878125,127.716064456875,56.28204345625
232828,-0.96836719375,0.326182588125,0.24734911125,12.062072753125,114.471435550625,83.50372314375
232831,-1.49668750625,-0.017079130625,0.36160692375,19.264221190625,65.582275394375,24.8489379875
232834,-1.1710039125,0.312998994375,0.31766161125000003,17.890930175,26.214599613125,-25.077819825
232837,-1.2881914125,0.17994235375,0.30325731437500003,-8.41522216875,0.4577636756249999,-24.192810059375
232840,-1.0499101625,0.29908297875,0.21023973625,-20.683288575,-7.0800781212500015,12.672424315625
232843,-1.101667975,0.10474704125,0.237339345625,-20.652770996875,-9.39941405875,56.89239501875
232846,-1.159529303125,-0.155506865,0.26761278312500003,38.45977783125,-41.107177730625,27.870178221875
232849,-1.214216803125,0.159190400625,0.26224168937500003,61.40899658125,-78.49121093375,-15.708923340625
232852,-1.074080084375,0.546885713125,0.34891161125000003,6.47735595625,-129.791259761875,11.756896971875
232855,-0.548689459375,0.661143525625,0.34305223625000003,-92.124938965625,-188.018798824375,4.859924315625
232858,-0.9151445375,0.403331025625,0.401890126875,-175.65155029375,-235.809326168125,9.4680786125
232861,-0.521833990625,0.02613376,0.091343251875,-178.916931153125,-271.91162109,-51.658630371875
232864,-0.4854570375,-0.01927639625,0.12967333,-153.984069825,-260.00976562125,-56.327819825
232867,-0.539412115625,0.04322360375,0.15945848625,-143.1198120125,-194.45800780875,-46.6842651375
232870,-0.5460039125,-0.02611233375,0.0661967675,-144.40155029375,-110.59570312125,-48.2711792
232873,-0.658552740625,-0.003163115,0.05691942375,-144.004821778125,-49.499511715,-58.21990966875
232876,-0.806501959375,0.032725556875,0.15945848625,-169.05975341875,2.31933594125,-102.40936279375
232879,-0.9053789125,-0.09447170875,0.32156786125000003,-176.658630371875,44.8608398475,-93.3151245125
232882,-0.979841803125,-0.044422880625,0.53934129875,-167.076110840625,45.318603519375,-78.23944091875
232885,-1.092146490625,-0.028797880625,0.61063036125,-166.465759278125,42.083740238125,-54.100036621875
232888,-1.072615240625,-0.24486233375,0.65457567375,-140.892028809375,40.863037113125,11.207580565625
232891,-1.121931646875,-0.38841702125,0.665562001875,-72.288513184375,48.0346679725,42.304992675
232894,-1.1739336,-0.322254911875,0.67996629875,-19.218444825,36.834716800625,10.4446411125
232897,-1.1241289125,-0.12620999,0.6482280175,-8.29315185625,18.2495117225,-43.20526123125
232900,-0.941511725,0.179698213125,0.653354970625,-51.963806153125,18.4936523475,-64.842224121875
232903,-0.855818365625,0.26783297875,0.58035692375,-117.7291870125,51.971435550625,-58.769226075
232906,-0.758162115625,0.11158297875,0.4236186425,-179.43572998125,77.88085937875,-44.761657715625
232909,-0.82481250625,-0.034657255625,0.153843251875,-188.560485840625,84.96093750375,-6.187438965625
232912,-0.79502735,-0.171864286875,0.15848192375,-158.7448120125,107.66601562875,9.742736815625
232915,-0.886091803125,-0.208485380625,0.202671376875,-126.21307373125,132.904052738125,19.508361815625
232918,-1.0284257875,-0.219715849375,0.29422411125000003,-99.35760498125,128.05175781625,26.893615721875
232921,-1.089949225,-0.246083036875,0.32596239250000003,-76.377868653125,100.738525394375,27.381896971875
232924,-1.04063281875,-0.133778349375,0.31814989250000003,-59.56268310625,79.406738285,18.2571411125
232927,-0.965681646875,-0.10814358375,0.30814012687500003,-57.395935059375,72.99804687875,20.790100096875
232930,-0.9385820375,-0.222157255625,0.27151903312500003,-49.827575684375,68.84765625375,29.9758911125
232933,-0.957380865625,-0.21263577125,0.26517137687500003,-32.127380371875,61.920166019375,27.565002440625
232936,-0.95664844375,-0.21263577125,0.27469286125000003,-21.5377807625,53.527832035,15.113830565625
232939,-0.97325000625,-0.108876005625,0.239780751875,-26.9088745125,44.708251956875,22.285461425
232942,-0.9092851625,-0.19701077125,0.227085439375,-17.601013184375,42.4194335975,21.217346190625
232945,-1.015486334375,-0.18822170875,0.238315908125,-5.24139404375,43.792724613125,15.937805175
232948,-0.998884771875,-0.162098661875,0.2087748925,1.8997192375,41.595458988125,18.959045409375
232951,-1.26231250625,-0.276844755625,0.34183153312500003,15.0833129875,36.3159179725,-2.708435059375
232954,-0.968855475,0.00660251,0.201694814375,26.771545409375,8.36181641,-14.671325684375
232957,-1.12950000625,-0.24193264625,0.1716655175,19.66094970625,-12.237548824375,38.734436034375
232960,-0.99375781875,-0.20433499,0.209507314375,47.950744628125,-20.538330074375,53.443908690625
232963,-1.09239063125,-0.03783108375,0.25687059562500003,51.734924315625,-20.99609374625,45.17364501875
232966,-1.12266406875,-0.05199124,0.21805223625,23.81134033125,-18.49365234,30.921936034375
232969,-1.08457813125,-0.143788115,0.206577626875,39.222717284375,-21.60644530875,45.570373534375
232972,-1.37168750625,0.045420869375,0.35379442375000003,37.84942626875,-70.281982418125,79.750061034375
232975,-1.21250781875,0.35670016625,0.389683095625,6.385803221875,-137.93945312125,76.54571533125
232978,-0.705427740625,0.217784150625,0.145542470625,-69.969177246875,-150.75683593375,19.752502440625
232981,-0.622419928125,-0.010975615,0.19363817375,-111.473083496875,-129.76074218375,-70.42694091875
232984,-0.69004688125,-0.210194365,0.20389208,-106.31561279375,-98.75488280875,-120.506286621875
232987,-0.608259771875,-0.280751005625,0.19852098625,-94.65789795,-71.868896480625,-147.94158935625
232990,-0.63926563125,-0.151356474375,0.240757314375,-66.307067871875,-41.107177730625,-192.527770996875
232993,-0.89317188125,-0.038075224375,0.19607958,-80.43670654375,-16.082763668125,-158.31756591875
232996,-0.925642584375,-0.276600615,0.27737840812500003,-77.07977295,10.86425781625,-91.42303466875
232999,-0.931501959375,-0.350086943125,0.27591356437500003,-45.2194213875,28.839111331875,-57.640075684375
233002,-0.896345709375,-0.23704983375,0.30496629875000003,-36.399841309375,39.18457031625,-42.83905029375
233005,-0.91953906875,-0.20579983375,0.28201708000000003,-42.015075684375,41.595458988125,-48.515319825
233008,-0.82774219375,-0.392079130625,0.29300340812500003,-31.028747559375,51.2084960975,-14.76287841875
233011,-0.8526445375,-0.5002334275,0.28079637687500003,34.461975096875,65.460205081875,38.063049315625
233014,-0.975447271875,-0.242665068125,0.26932176750000003,74.562072753125,59.44824219125,107.67364501875
233017,-1.056501959375,-0.100086943125,0.29959520500000003,78.74298095625,34.79003906625,138.496398925
233020,-0.99473438125,-0.19408108375,0.28787645500000003,63.697814940625,25.787353519375,125.892639159375
233023,-0.868513678125,-0.19798733375,0.28226122062500003,71.7239379875,21.11816406625,98.76251220625
233026,-0.958357428125,-0.079579130625,0.25125536125000003,70.5032348625,30.426025394375,85.426330565625
233029,-1.068708990625,0.012217744375,0.27762254875000003,48.011779784375,26.580810550625,76.66778564375
233032,-1.104353521875,0.040049775625,0.33841356437500003,15.174865721875,14.251708988125,70.045471190625
233035,-1.077986334375,-0.043934599375,0.30691942375000003,-3.89862060625,-6.5612792931250015,54.115295409375
233038,-0.991072271875,-0.088368193125,0.28445848625000003,-6.065368653125,-16.784667965,30.76934814375
233041,-0.972029303125,-0.039540068125,0.26883348625000003,-13.145446778125,-14.09912109,16.944885253125
233044,-1.03721485,-0.11449124,0.26956590812500003,-10.5514526375,-13.30566405875,10.74981689375
233047,-1.0499101625,-0.06517483375,0.29642137687500003,-8.384704590625,-18.00537109,34.30938720625
233050,-1.076033209375,0.031993135,0.33133348625000003,-29.014587403125,-44.128417965,32.997131346875
233053,-0.788435553125,-0.031727568125,0.32400926750000003,-39.939880371875,-46.75292968375,13.832092284375
233056,-1.219099615625,-0.228504911875,0.28348192375000003,-25.99334716875,-52.7954101525,-0.633239746875
233059,-0.6583085999999999,0.1696884475,0.23270067375,-40.94696045,-64.636230465,-5.546569825
233062,-0.6963945375,0.00904391625,0.28421434562500003,-77.812194825,-42.694091793125,-52.11639404375
233065,-0.7129960999999999,-0.3049209275,0.23953661125,-45.005798340625,-2.777099605625,-69.08416748125
233068,-0.951033209375,-0.23021389625,0.22684129875,-11.161804199999999,17.181396488125,-72.349548340625
233071,-1.015974615625,-0.0685928025,0.27127489250000003,-14.976501465625,31.79931641,-65.17791748125
233074,-0.997908209375,-0.14525295875,0.31009325187500003,-20.347595215625,18.859863285,-44.273376465625
233077,-1.007185553125,-0.006336943125,0.29983934562500003,-20.0729370125,3.90625000375,-39.237976075
233080,-0.904158209375,-0.07884670875,0.32840379875000003,-50.1022338875,-9.88769530875,-28.038024903125
233083,-1.052595709375,-0.18919827125,0.36746629875,-57.151794434375,-33.599853511875,-70.30487060625
233086,-1.090193365625,-0.391590849375,0.392124501875,-19.981384278125,-61.76757812125,-87.181091309375
233089,-1.065291021875,-0.0881240525,0.34256395500000003,-28.67889404375,-65.032958980625,-100.975036621875
233092,-1.46543750625,-0.124989286875,0.4353373925,-40.4586792,-95.611572261875,-101.0055542
233095,-1.2569414125,-0.517079130625,0.488315908125,-22.789001465625,-130.9204101525,-217.369079590625
233098,-0.7042070375,0.040049775625,0.140171376875,-136.0397338875,-158.386230465,-213.523864746875
233101,-0.6651445375,-0.379383818125,0.373081533125,-83.213806153125,-119.537353511875,-114.3112182625
233104,-0.606306646875,-0.672352568125,0.30154833000000003,-8.506774903125,-77.117919918125,-50.28533935625
233107,-0.602400396875,-0.564442411875,0.26004442375000003,66.53594970625,-47.24121093375,-11.83319091875
233110,-0.639021490625,-0.431629911875,0.31546434562500003,96.778869628125,-39.581298824375,4.371643065625
233113,-0.67637500625,-0.3830459275,0.33621629875000003,110.5422973625,-42.388916011875,7.057189940625
233116,-0.81846485,-0.274891630625,0.33060106437500003,98.70147705,-45.257568355625,-42.90008545
233119,-0.972029303125,-0.176258818125,0.3982280175,75.44708251875,-51.3305664025,-63.377380371875
233122,-0.996931646875,-0.334461943125,0.44656786125,66.719055175,-80.718994136875,-83.00018310625
233125,-0.867048834375,-0.433094755625,0.48270067375,86.250305175,-105.83496093375,-99.143981934375
233128,-0.766462896875,-0.358876005625,0.446812001875,103.2180786125,-101.470947261875,-80.741882325
233131,-0.695173834375,-0.339344755625,0.436313955,118.507385253125,-77.911376949375,-25.718688965625
233134,-0.6504960999999999,-0.296131865,0.4177592675,124.488830565625,-44.952392574375,21.00372314375
233137,-0.5020585999999999,-0.30589749,0.42313036125,137.855529784375,-0.4577636681250001,49.7512817375
233140,-0.4131914125,-0.210194365,0.35574754875000003,140.38848876875,66.46728516,75.81329345625
233143,-0.549666021875,-0.23509670875,0.396519033125,147.34649658125,131.439208988125,47.00469970625
233146,-0.75157031875,-0.2873428025,0.381626455,150.64239501875,170.135498050625,18.898010253125
233149,-0.80039844375,-0.37865139625,0.404331533125,185.61553955,190.00244141,24.238586425
233152,-0.930525396875,-0.234364286875,0.40311083,218.055725096875,191.192626956875,28.5110473625
233155,-0.9708085999999999,-0.029774443125,0.4470561425,214.179992675,183.685302738125,36.6897583
233158,-1.036482428125,-0.032215849375,0.46023973625,192.481994628125,165.03906250375,39.833068846875
233161,-1.1143632875,0.0271103225,0.455601064375,160.255432128125,138.24462891,15.63262939375
233164,-1.089216803125,0.121592744375,0.489292470625,104.25567626875,107.1166992225,29.853820799999998
233167,-1.1026445375,0.12134860375,0.452183095625,63.575744628125,78.033447269375,57.62481689375
233169,-1.08262500625,-0.079090849375,0.4275248925,53.871154784375,63.995361331875,46.791076659375
233172,-0.9385820375,-0.103993193125,0.36746629875,63.636779784375,62.98828125375,15.113830565625
233175,-0.96836719375,-0.17943264625,0.32059129875000003,80.879211425,59.387207035,26.649475096875
233178,-0.90684375625,-0.10033108375,0.31155809562500003,101.57012939375,66.497802738125,68.73321533125
233181,-0.98008594375,-0.0295303025,0.33035692375000003,108.16192626875,79.071044925625,86.43341064375
233184,-0.9561601625,-0.031239286875,0.30545458000000003,115.272521971875,86.97509766,69.2825317375
233187,-0.91270313125,-0.028309599375,0.23660692375,116.859436034375,91.644287113125,68.183898925
233190,-1.1045976625,-0.1252334275,0.28812059562500003,124.03106689375,93.048095706875,12.45880126875
233193,-0.929060553125,0.080577119375,0.218784658125,135.292053221875,81.329345706875,-40.733337403125
233196,-0.896345709375,0.10377047875,0.20340379875,104.225158690625,88.8061523475,12.001037596875
233199,-0.924177740625,0.026866181875,0.26810106437500003,102.577209471875,81.451416019375,40.992736815625
233202,-1.05918750625,0.098399385,0.227573720625,107.49053955,79.65087891,17.311096190625
233205,-1.039167975,0.114756806875,0.207554189375,104.49981689375,80.383300785,20.14923095625
233208,-1.02793750625,0.09693454125,0.21023973625,89.271545409375,68.96972656625,41.14532470625
233211,-0.9395585999999999,0.06129001,0.190464345625,95.680236815625,65.460205081875,37.48321533125
233214,-0.929060553125,0.13404391625,0.17898973625,99.37286376875,70.67871094125,26.527404784375
233217,-1.087263678125,0.249522431875,0.138706533125,80.14678955,62.835693363125,45.326232909375
233220,-1.1661211,0.250743135,0.184604970625,53.1692504875,36.98730469125,46.913146971875
233223,-1.1807695375,0.28785251,0.209507314375,29.823303221875,17.395019535,45.8450317375
233226,-1.102888678125,0.153086885,0.205845205,16.212463378125,-17.82226562125,48.805236815625
233229,-1.066511725,0.113780244375,0.136265126875,20.729064940625,-28.44238280875,37.910461425
233232,-1.11192188125,0.124034150625,0.169956533125,32.539367675,-45.34912109,33.607482909375
233235,-1.234480475,0.170420869375,0.21512254875,36.445617675,-69.94628905875,14.686584471875
233238,-1.283552740625,0.321299775625,0.238315908125,15.968322753125,-108.88671874625,4.219055175
233241,-1.185896490625,0.193370088125,0.238804189375,-9.8190307625,-162.35351562125,-77.598571778125
233244,-1.058699225,0.261729463125,0.34817918937500003,-51.658630371875,-198.822021480625,-132.19451904375
233247,-0.8721757875,0.3005478225,0.26590379875000003,-87.82196045,-220.33691405875,-112.23602295
233250,-0.64317188125,0.180430635,0.21512254875,-100.975036621875,-207.122802730625,-30.723571778125
233253,-0.588728521875,-0.130360380625,0.198765126875,-58.982849121875,-181.243896480625,28.2669067375
233256,-0.653181646875,-0.259266630625,0.26736864250000003,10.99395751875,-153.839111324375,22.10235595625
233259,-0.577009771875,-0.209950224375,0.30081590812500003,54.847717284375,-126.922607418125,-4.844665528125
233262,-0.479841803125,-0.081532255625,0.28934129875000003,68.153381346875,-123.443603511875,-25.535583496875
233265,-0.523298834375,0.06129001,0.388218251875,44.349670409375,-107.269287105625,-58.555603028125
233268,-0.577009771875,0.0114853225,0.29861864250000003,21.278381346875,-72.3266601525,-97.831726075
233271,-1.00352344375,-0.0627334275,0.160190908125,20.332336425,-34.79003905875,-143.05877685625
233274,-1.24082813125,0.19947360375,0.405308095625,-13.05389404375,-1.7700195275,-173.423767090625
233277,-1.54502735,0.33619235375,0.764194814375,-83.36639404375,-101.470947261875,-180.198669434375
233280,-1.28965625625,0.12916110375,0.61453661125,-133.201599121875,-198.66943359,-198.17352295
233283,-0.913435553125,-0.173329130625,0.560093251875,-126.94549560625,-165.3442382775,-214.927673340625
233286,-0.643904303125,-0.2912490525,0.4822123925,-76.16424560625,-60.66894530875,-136.34490966875
233289,-0.66270313125,-0.261219755625,0.55887254875,-16.075134278125,31.49414062875,-43.907165528125
233292,-0.9161210999999999,-0.186512724375,0.559604970625,12.45880126875,56.8237304725,1.319885253125
233295,-0.833845709375,-0.153309599375,0.543979970625,24.54376220625,65.887451175625,31.4407348625
233298,-0.84922656875,-0.128163115,0.46805223625,29.579162596875,83.404541019375,42.48809814375
233301,-0.839949225,-0.180653349375,0.434604970625,35.499572753125,86.212158206875,51.094055175
233304,-0.796980475,-0.16966702125,0.421421376875,52.00958251875,101.837158206875,77.88848876875
233307,-0.81992969375,-0.190663115,0.3845561425,77.7053833,103.57666016,87.440490721875
233310,-0.82188281875,-0.130360380625,0.401401845625,104.6829223625,93.109130863125,80.604553221875
233313,-0.888044928125,-0.089344755625,0.389683095625,119.117736815625,81.024169925625,65.0100708
233316,-0.963240240625,-0.0041396775,0.35501512687500003,117.835998534375,76.080322269375,40.04669189375
233319,-0.963240240625,0.06959079125,0.39383348625,93.177795409375,69.5190429725,19.53887939375
233322,-0.907576178125,0.096202119375,0.399448720625,71.05255126875,69.976806644375,-0.96893310625
233325,-0.901228521875,0.1325790725,0.36844286125,46.852111815625,74.432373050625,4.0969848625
233328,-0.965193365625,-0.026844755625,0.35818895500000003,44.01397705,69.94628906625,16.426086425
233331,-1.026228521875,-0.100575224375,0.38211473625,68.7942504875,53.22265625375,10.780334471875
233334,-1.10215625625,-0.073231474375,0.384312001875,87.989807128125,24.261474613125,-14.976501465625
233337,-1.028669928125,0.013194306875,0.408970205,90.70587158125,-11.016845699375,-28.007507325
233340,-1.000349615625,0.106211885,0.33621629875000003,77.0950317375,-28.045654293125,-45.921325684375
233343,-0.863142584375,0.10425876,0.31155809562500003,56.312561034375,-5.8288574181250015,-71.5866088875
233346,-0.8253007875,0.020030244375,0.32522997062500003,38.33770751875,33.3862304725,-94.566345215625
233349,-0.914412115625,-0.175282255625,0.31351122062500003,49.93438720625,60.54687500375,-120.994567871875
233352,-0.940779303125,-0.252918974375,0.34402879875000003,84.510803221875,69.2749023475,-153.43475341875
233355,-0.929548834375,-0.21361233375,0.30716356437500003,108.03985595625,69.94628906625,-175.010681153125
233358,-0.97032031875,-0.241200224375,0.33646043937500003,119.789123534375,71.89941406625,-204.124450684375
233361,-1.011091803125,-0.24876858375,0.33914598625000003,128.8528442375,58.074951175625,-242.362976075
233364,-1.192244146875,-0.311512724375,0.30423387687500003,145.57647705,29.113769535,-254.570007325
233367,-1.19200000625,-0.187977568125,0.428745595625,155.860900878125,-21.026611324375,-253.65447998125
233370,-1.250837896875,-0.137684599375,0.435581533125,128.730773925,-62.652587886875,-254.87518310625
233373,-1.1973711,-0.0920303025,0.490757314375,85.21270751875,-112.640380855625,-276.329040528125
233376,-1.072126959375,-0.1017959275,0.485874501875,55.885314940625,-152.557373043125,-262.68768310625
233379,-0.909529303125,-0.053944365,0.49686083,23.93341064375,-181.365966793125,-258.201599121875
233382,-0.754011725,-0.23167874,0.4197123925,-25.4440307625,-187.713623043125,-278.25164795
233385,-0.6378007875,-0.47337795875,0.35232958000000003,-43.418884278125,-150.573730465,-316.307067871875
233388,-0.57285938125,-0.5764053025,0.29080614250000003,-34.202575684375,-110.6567382775,-336.082458496875
233391,-0.483259771875,-0.591297880625,0.22195848625,-17.93670654375,-60.48583984,-312.187194825
233394,-0.271833990625,-0.60521389625,0.33108934562500003,6.996154784375,10.13183594125,-253.379821778125
233397,-0.242048834375,-0.598622099375,0.27005418937500003,29.853820799999998,89.660644535,-167.59490966875
233400,-0.262068365625,-0.687001005625,0.30228075187500003,65.1321411125,160.858154300625,-83.702087403125
233403,-0.408064459375,-0.65501858375,0.28421434562500003,115.089416503125,216.766357425625,-41.099548340625
233406,-0.6192460999999999,-0.668934599375,0.169956533125,154.151916503125,223.0834960975,-19.920349121875
233409,-0.86387500625,-0.692372099375,0.096714345625,200.32501220625,182.67822266,-50.132751465625
233412,-0.91221485,-0.569569365,0.104526845625,219.947814940625,133.636474613125,-94.35272216875
233415,-0.859236334375,-0.4807021775,0.19949754875,224.0676879875,115.875244144375,-124.50408935625
233418,-0.76035938125,-0.269520536875,0.30740770500000003,195.716857909375,126.46484375375,-115.867614746875
233421,-0.8067460999999999,-0.17552639625,0.34207567375000003,144.2337036125,139.129638675625,-68.199157715625
233424,-0.7842851625,-0.2033584275,0.390171376875,102.9739379875,148.3764648475,-6.09588623125
233427,-0.835798834375,-0.289051786875,0.390659658125,77.857971190625,164.276123050625,40.077209471875
233430,-0.872908209375,-0.370106474375,0.34964403312500003,54.603576659375,176.086425785,85.5178833
233433,-0.9942460999999999,-0.55443264625,0.35721239250000003,52.345275878125,169.18945312875,103.58428955
233436,-1.082136725,-0.594227568125,0.3786967675,68.031311034375,143.67675781625,95.1614379875
233439,-1.139998053125,-0.511219755625,0.376987783125,73.73809814375,114.044189456875,71.66290283125
233442,-1.166365240625,-0.40697170875,0.400913564375,62.171936034375,78.338623050625,47.37091064375
233445,-1.155134771875,-0.34544827125,0.396030751875,40.626525878125,33.996582035,22.743225096875
233448,-1.13731250625,-0.40404202125,0.385288564375,18.2571411125,-8.23974609,0.892639159375
233451,-1.098982428125,-0.439930693125,0.38211473625,10.108947753125,-39.093017574375,-14.122009278125
233454,-1.05137500625,-0.447743193125,0.408237783125,9.193420409375,-59.08203124625,-15.953063965625
233457,-1.0176836,-0.495594755625,0.40164598625,12.733459471875,-73.577880855625,-14.51873779375
233460,-0.92149219375,-0.461903349375,0.414585439375,15.785217284375,-83.953857418125,-20.50018310625
233463,-0.8682695375,-0.535633818125,0.418979970625,20.9426879875,-90.057373043125,-36.643981934375
233466,-0.804792975,-0.561512724375,0.430698720625,28.93829345625,-85.144042965,-70.54901123125
233469,-0.811873053125,-0.58275295875,0.4411967675,29.701232909375,-84.22851562125,-106.80389404375
233472,-0.735701178125,-0.5314834275,0.494175283125,23.292541503125,-89.935302730625,-140.55633545
233475,-0.641951178125,-0.487293974375,0.470249501875,8.4915161125,-100.70800780875,-169.944763184375
233478,-0.563337896875,-0.450184599375,0.4509623925,-10.276794434375,-106.81152343375,-186.51580810625
233481,-0.40782031875,-0.500965849375,0.402378408125,-24.04022216875,-99.578857418125,-182.97576904375
233484,-0.375349615625,-0.506336943125,0.362827626875,-37.559509278125,-70.098876949375,-196.89178466875
233487,-0.352400396875,-0.637196318125,0.35770067375000003,-42.22869873125,-38.6352539025,-204.8873901375
233490,-0.359236334375,-0.620594755625,0.34891161125000003,-43.0221557625,-8.636474605625,-201.194763184375
233493,-0.41758594375,-0.615711943125,0.35647997062500003,-42.442321778125,10.894775394375,-188.5299682625
233496,-0.4210039125,-0.69115139625,0.33694872062500003,-45.372009278125,43.94531250375,-187.950134278125
233499,-0.3702226625,-0.67747952125,0.28836473625000003,-52.696228028125,78.643798831875,-188.804626465625
233502,-0.308943365625,-0.640614286875,0.27054247062500003,-65.116882325,110.382080081875,-180.809020996875
233505,-0.387068365625,-0.651844755625,0.27493700187500003,-81.5963745125,134.7045898475,-162.315368653125
233508,-0.49864063125,-0.645497099375,0.25980028312500003,-93.62030029375,137.969970706875,-154.65545654375
233511,-0.461042975,-0.704090849375,0.246616689375,-116.20330810625,157.28759766,-143.1198120125
233514,-0.579939459375,-0.71605374,0.26785692375000003,-129.63104248125,168.792724613125,-142.906188965625
233517,-0.62657031875,-0.7658584275,0.238315908125,-147.605895996875,174.56054687875,-148.67401123125
233520,-0.55430469375,-0.738270536875,0.20779833,-159.355163575,179.80957031625,-167.076110840625
233523,-0.4639726625,-0.68626858375,0.140659658125,-176.292419434375,189.81933594125,-135.3073120125
233526,-0.205427740625,-0.613270536875,-0.07003370125,-201.866149903125,226.654052738125,-58.677673340625
233529,-0.180037115625,-0.622059599375,-0.2306782325,-226.06658935625,287.65869141,-0.23651123124999995
233532,-0.241560553125,-0.895008818125,-0.39425245125,-230.7662963875,365.35644531625,80.848693846875
233535,-0.428572271875,-1.108876005625,-0.3732563575,-160.9420776375,352.752685550625,134.101867675
233538,-0.48887500625,-1.132313505625,-0.250453623125,-89.988708496875,315.155029300625,166.57257080000002
233541,-0.361189459375,-0.964833036875,-0.233852060625,-49.339294434375,292.4194335975,172.61505126875
233544,-0.4698320375,-1.049793974375,-0.239467295,24.879455565625,255.584716800625,281.31866455
233547,-0.3682695375,-0.826649443125,-0.3127094825,89.85137939375,256.683349613125,342.41485595625
233550,-0.865095709375,-0.983387724375,-0.19308057625,164.039611815625,234.00878906625,378.883361815625
233553,-1.33067188125,-1.031727568125,0.031772939375,252.113342284375,139.617919925625,355.84259033125
233556,-1.553572271875,-0.675282255625,0.18094286125,299.81231689375,-2.105712886875,276.5579223625
233559,-1.506208990625,-0.274403349375,0.18045458,268.867492675,-123.199462886875,233.46710205
233562,-1.461287115625,-0.07396389625,0.136265126875,187.4465942375,-218.597412105625,234.687805175
233565,-1.38535938125,0.050303681875,0.11356004875,107.643127440625,-290.95458984,268.80645751875
233568,-1.1866289125,0.008555634999999999,0.0014995018750000033,19.996643065625,-307.312011715,294.288635253125
233571,-0.93516406875,-0.305165068125,-0.110561045,-40.15350341875,-247.039794918125,262.21466064375
233574,-0.93614063125,-0.364735380625,-0.0666157325,-63.133239746875,-146.36230468375,207.435607909375
233577,-1.4835039125,-0.32396389625,0.15066942375,-88.3102417,-173.522949215,193.763732909375
233580,-1.600935553125,-0.384266630625,0.28177293937500003,-107.383728028125,-269.47021484,164.772033690625
233583,-1.5049882875,-0.37279202125,0.25149950187500003,-106.712341309375,-372.1313476525,142.402648925
233586,-1.2725664125,-0.2463271775,0.245640126875,-110.923767090625,-443.634033199375,153.663635253125
233589,-1.02207813125,-0.111317411875,0.139683095625,-131.58416748125,-468.13964843375,201.17950439375
233592,-0.76621875625,-0.12083889625,0.130405751875,-138.2369995125,-451.019287105625,219.459533690625
233595,-0.623396490625,-0.050282255625,0.081577626875,-159.324645996875,-399.200439449375,237.709045409375
233598,-0.6583085999999999,-0.10619045875,0.1423686425,-201.2252807625,-329.04052734,307.533264159375
233601,-0.66221485,-0.346913115,0.22879442375,-179.832458496875,-274.41406249625,318.214416503125
233604,-0.664412115625,-0.46263577125,0.29324754875000003,-137.5045776375,-223.4497070275,313.97247314375
233607,-0.5186601625,-0.53245999,0.229038564375,-106.620788575,-182.952880855625,247.32208251875
233610,-0.550642584375,-0.652821318125,0.32693895500000003,-54.283142090625,-149.993896480625,155.921936034375
233613,-0.7530351625,-0.48119045875,0.229526845625,-14.7018432625,-134.460449215,64.674377440625
233616,-0.89024219375,-0.263172880625,0.483188955,-36.033630371875,-131.744384761875,39.649963378125
233619,-0.86875781875,-0.271961943125,0.672886220625,-65.818786621875,-147.94921874625,83.900451659375
233622,-0.8389726625,-0.2990615525,0.813999501875,-58.189392090625,-188.5375976525,134.132385253125
233625,-0.970076178125,-0.4650771775,0.824253408125,-25.962829590625,-233.978271480625,150.88653564375
233628,-0.73203906875,-0.420887724375,0.901401845625,19.05059814375,-272.125244136875,127.32696533125
233631,-0.5098710999999999,-0.362293974375,0.9509623925,38.6428833,-272.613525386875,71.998596190625
233634,-0.264021490625,-0.18919827125,0.89139208,21.766662596875,-250.36621093375,26.893615721875
233637,-0.434919928125,-0.13646389625,0.768101064375,-3.074645996875,-227.29492187125,6.019592284375
233640,-0.521833990625,-0.199696318125,0.81473192375,-25.62713623125,-197.0825195275,-2.464294434375
233643,-0.62559375625,-0.27464749,0.903843251875,-25.718688965625,-177.398681636875,6.446838378125
233646,-0.57188281875,-0.269032255625,0.898960439375,-7.469177246875,-164.398193355625,3.0899047843750003
233649,-0.679548834375,-0.21654202125,0.927769033125,9.498596190625,-135.040283199375,3.1814575187500003
233652,-0.69102344375,-0.198475615,0.93484911125,23.32305908125,-120.48339843375,47.0657348625
233655,-0.745955084375,-0.145008818125,1.002720205,41.38946533125,-133.514404293125,63.789367675
233658,-0.684431646875,-0.080555693125,0.97977098625,45.722961425,-165.77148437125,39.4973754875
233661,-0.571150396875,-0.088368193125,1.0095561425,43.983459471875,-206.8481445275,22.773742675
233663,-0.5010820375,-0.046864286875,0.944126455,44.410705565625,-227.874755855625,8.277893065625
233666,-0.327009771875,-0.017079130625,0.92703661125,34.004211425,-237.42675780875,-2.830505371875
233669,-0.21153125625,0.029795869375,0.901890126875,27.809143065625,-227.508544918125,-11.436462403125
233672,-0.060408209375,0.038096650625,0.886753408125,8.522033690625,-187.194824215,-11.71112060625
233675,-0.02891406875,0.017588838125,0.83279833,-6.8893432625,-139.64843749625,-16.075134278125
233678,0.02967968125,0.030772431875,0.798374501875,-22.0260620125,-92.132568355625,-8.53729248125
233681,0.126115228125,-0.018055693125,0.8513530175,-28.831481934375,-50.506591793125,-2.616882325
233684,-0.07774219375,-0.055653349375,0.74930223625,-31.85272216875,-8.636474605625,-6.034851075
233687,-0.27012500625,-0.074696318125,0.81375536125,-34.53826904375,-5.5847167931250015,-18.394470215625
233690,-0.3174882875,-0.18822170875,0.90652879875,-28.8619995125,-15.289306636875,-16.47186279375
233693,-0.241072271875,-0.198475615,0.961460439375,-13.05389404375,-21.209716793125,-7.499694825
233696,-0.260603521875,-0.21263577125,0.9607280175,3.6087036125,-25.726318355625,6.507873534375
233699,-0.29942188125,-0.19310452125,0.99344286125,23.414611815625,-49.530029293125,5.0735473625
233702,-0.379255865625,-0.1623428025,1.05496629875,30.799865721875,-84.136962886875,8.0032348625
233705,-0.335310553125,-0.09935452125,1.135532705,32.11212158125,-126.40380859,0.06866455000000005
233708,-0.36875781875,-0.045887724375,1.173374501875,21.766662596875,-166.5649414025,3.5476684562500003
233711,-0.057966803125,-0.021473661875,1.198032705,11.84844970625,-174.3774414025,15.235900878125
233714,0.089494134375,-0.02513577125,1.0798686425,10.597229003125,-141.296386715,36.38458251875
233717,0.019181634375,-0.088856474375,0.963413564375,20.0881958,-101.07421874625,49.659729003125
233720,0.082169915625,-0.11986233375,0.900425283125,36.20147705,-67.535400386875,45.29571533125
233723,0.173478509375,-0.09886624,0.8708842675,48.133850096875,-32.867431636875,32.84454345625
233726,0.05116405625,-0.094715849375,0.814487783125,56.190490721875,-16.510009761875,31.4407348625
233729,0.004044915624999999,-0.05931545875,0.79813036125,61.866760253125,-11.35253905875,17.677307128125
233732,0.097794915625,-0.016102568125,0.886753408125,54.176330565625,8.30078125375,-0.14495849687499995
233735,0.05507030625,0.01295016625,0.903843251875,34.18731689375,24.932861331875,-2.952575684375
233738,0.064591790625,0.022471650625,0.923862783125,15.937805175,50.35400391,2.1743774406250003
233741,0.05702343125,0.039805635,0.964390126875,-0.511169434375,73.48632812875,51.063537596875
233744,-0.02891406875,0.05298922875,0.98563036125,1.4114379875,92.681884769375,121.0403442375
233747,-0.186873053125,0.130381806875,0.9958842675,3.0899047843750003,89.172363285,176.734924315625
233750,-0.275740240625,0.21314547875,1.04129442375,-12.0162963875,71.014404300625,271.949768065625
233753,-0.155134771875,0.2341415725,1.1130717675,-18.9743042,66.192626956875,347.023010253125
233756,-0.16563281875,0.198252900625,1.0505717675,-24.40643310625,61.065673831875,350.47149658125
233759,-0.073591803125,0.134776338125,1.014438955,-35.911560059375,66.375732425625,350.0442504875
233762,-0.057478521875,0.12525485375,0.957554189375,-38.261413575,89.508056644375,342.140197753125
233765,-0.162458990625,0.127452119375,0.92898973625,-38.536071778125,102.17285156625,328.37677001875
233768,-0.16270313125,0.086436494375,0.948765126875,-41.679382325,103.302001956875,318.36700439375
233771,-0.2549882875,0.113291963125,0.911655751875,-43.174743653125,97.381591800625,293.22052001875
233774,-0.3604570375,0.095713838125,0.939976064375,-51.170349121875,79.83398437875,273.44512939375
233777,-0.540876959375,0.035899385,1.004429189375,-52.879333496875,25.39062500375,226.69219970625
233780,-0.343123053125,-0.109364286875,1.108188955,-46.714782715625,-32.2875976525,153.9993286125
233783,-0.174177740625,-0.128895536875,1.118198720625,-50.52947998125,-53.314208980625,67.665100096875
233786,-0.188826178125,-0.142567411875,0.96512254875,-43.57147216875,-59.20410155875,27.5344848625
233789,-0.11875781875,-0.117665068125,1.00223192375,-34.263610840625,-49.3774414025,32.997131346875
233792,-0.19785938125,-0.06615139625,0.99441942375,-21.202087403125,-36.315917965,58.204650878125
233795,-0.22910938125,-0.0373428025,0.993198720625,-9.941101075,-29.72412109,97.572326659375
233798,-0.27158985,-0.05247952125,1.001499501875,-0.23651123124999995,-33.08105468375,133.9797973625
233801,-0.26328906875,-0.07152249,0.997104970625,13.465881346875,-43.060302730625,138.67950439375
233804,-0.25450000625,-0.062977568125,1.016147939375,19.264221190625,-53.741455074375,133.705139159375
233807,-0.22325000625,-0.038075224375,1.03201708,19.874572753125,-53.863525386875,123.60382079999998
233810,-0.19346485,-0.03587795875,1.0486186425,17.21954345625,-61.065673824375,96.74835205
233813,-0.1592851625,-0.032215849375,1.028354970625,9.071350096875,-65.06347655875,75.26397705
233816,-0.2003007875,-0.04759670875,1.003940908125,2.4185180656250003,-79.22363280875,64.3997192375
233819,-0.175642584375,-0.089833036875,1.051304189375,5.714416503125,-92.71240234,38.15460205
233822,-0.078474615625,-0.093739286875,1.029819814375,8.3694458,-98.052978511875,20.362854003125
233825,0.11854686875,-0.075184599375,1.057407705,7.94219970625,-78.948974605625,14.137268065625
233828,-0.010115240625,-0.072743193125,0.91141161125,2.5711059562500003,-67.108154293125,-0.29754638749999995
233831,0.0016035093749999993,-0.077381865,0.952671376875,-3.318786621875,-57.1899414025,1.136779784375
233834,0.00819530625,-0.062977568125,0.96512254875,-1.304626465625,-39.520263668125,14.1067504875
233837,-0.174177740625,-0.093251005625,0.94754442375,9.803771971875,-47.576904293125,23.44512939375
233840,-0.193708990625,-0.0724990525,1.0173686425,16.85333251875,-80.8715820275,35.621643065625
233843,-0.143416021875,-0.1174209275,1.073032705,27.900695799999998,-110.22949218375,40.199279784375
233846,-0.043074225,-0.08861233375,1.082065908125,43.70880126875,-130.096435543125,41.481018065625
233849,0.031144525,-0.022450224375,1.086460439375,59.0286254875,-128.204345699375,40.90118408125
233852,0.081193353125,0.1130478225,1.105015126875,54.847717284375,-128.875732418125,45.1126098625
233855,0.0536054625,0.163096650625,1.050815908125,32.814025878125,-134.948730465,40.41290283125
233858,0.14784374375,0.14332126,0.994663564375,13.252258300000001,-134.64355468375,40.870666503125
233861,0.34022655625,0.102061494375,0.92264208,2.2354125968750003,-104.91943359,45.814514159375
233864,0.34999218125,0.065440400625,0.8786967675,-2.55584716875,-60.272216793125,51.39923095625
233867,0.2977460875,0.04420016625,0.80594286125,-7.92694091875,-37.96386718375,50.91094970625
233870,0.26991405625,0.0002548537499999998,0.823032705,-6.004333496875,-20.38574218375,26.74102783125
233873,0.34169140000000003,0.01392672875,0.875034658125,-8.29315185625,8.453369144375,11.9094848625
233876,0.39637890000000003,0.032237275625,0.86746629875,-13.206481934375,57.67822266,23.780822753125
233879,0.44178905625,0.085459931875,0.88602098625,-20.286560059375,122.406005863125,59.608459471875
233882,0.333634759375,0.101573213125,0.83035692375,-30.723571778125,183.929443363125,113.9602661125
233885,0.1375898375,0.058116181875,0.81668504875,-26.512145996875,219.29931641,171.546936034375
233888,0.09217968125,0.016368135,0.876011220625,-5.943298340625,228.118896488125,203.895568846875
233891,0.0448164,0.015147431875,0.91873583,19.691467284375,233.3374023475,221.412658690625
233894,0.005753899999999999,0.035166963125,0.970737783125,41.053771971875,228.302001956875,202.15606689375
233897,-0.137068365625,0.1462509475,0.955601064375,35.987854003125,210.1440429725,211.49444580000002
233900,-0.333357428125,0.18482516625,1.02078661125,25.64239501875,162.59765625375,201.759338378125
233903,-0.337751959375,0.147471650625,1.09012254875,10.9329223625,117.462158206875,188.392639159375
233906,-0.383162115625,0.170909150625,1.094272939375,-1.57928466875,75.56152344125,146.156311034375
233909,-0.30821094375,0.134288056875,1.101108876875,-18.638610840625,38.787841800625,104.225158690625
233912,-0.292830084375,0.128916963125,1.05154833,-38.658142090625,13.8549804725,71.66290283125
233915,-0.16953906875,0.075694306875,1.109897939375,-50.559997559375,3.1127929725,63.941955565625
233918,-0.27793750625,-0.016590849375,0.9724467675,-57.1823120125,-14.7094726525,62.110900878125
233921,-0.141462896875,-0.03636624,1.039097158125,-49.766540528125,-26.00097655875,53.199768065625
233924,-0.102888678125,0.007334931875,0.997104970625,-50.071716309375,-14.343261715,52.162170409375
233927,-0.079939459375,0.038096650625,0.966343251875,-52.2994995125,11.993408206875,69.313049315625
233930,-0.0889726625,0.0525009475,0.93387254875,-53.428649903125,42.23632812875,88.63067626875
233933,-0.080427740625,-0.035145536875,0.897251455,-55.747985840625,61.553955081875,86.097717284375
233936,-0.13438281875,-0.114735380625,0.83279833,-56.724548340625,70.19042969125,77.369689940625
233939,-0.195173834375,-0.201161161875,0.876499501875,-32.920837403125,80.596923831875,80.2688598625
233942,-0.11778125625,-0.19896389625,0.9392436425,8.583068846875,103.546142581875,72.88360595625
233945,-0.086287115625,-0.14232327125,0.912144033125,49.537658690625,136.810302738125,52.162170409375
233948,-0.127791021875,-0.09447170875,0.871128408125,70.106506346875,173.0346679725,46.15020751875
233951,-0.248884771875,-0.03880764625,0.899937001875,73.1887817375,210.052490238125,45.90606689375
233954,-0.426619146875,0.0173446975,0.850132314375,73.7991333,211.42578125375,41.63360595625
233957,-0.562605475,0.03052829125,0.91043504875,68.458557128125,177.61230469125,29.945373534375
233960,-0.606306646875,0.07349704125,0.91873583,54.603576659375,130.49316406625,23.353576659375
233963,-0.65684375625,0.119151338125,0.9685405175,44.258117675,75.531005863125,29.30450439375
233966,-0.60606250625,0.103038056875,1.000034658125,39.31427001875,18.31054687875,49.69024658125
233969,-0.555037115625,0.098399385,1.063999501875,36.598205565625,-13.366699215,50.209045409375
233972,-0.440291021875,0.10816501,1.100376455,24.48272705,-33.93554687125,68.0618286125
233975,-0.518416021875,0.082774385,1.0056498925,17.46368408125,-69.6411132775,68.85528564375
233978,-0.4835039125,0.069346650625,1.012241689375,12.428283690625,-87.9516601525,51.82647705
233981,-0.41221485,0.119639619375,1.017612783125,2.2354125968750003,-97.10693359,45.66192626875
233984,-0.423689459375,0.1267196975,1.011265126875,-4.905700684375,-106.2622070275,30.830383299999998
233987,-0.410261725,0.104502900625,1.030796376875,-12.5045776375,-116.363525386875,29.762268065625
233990,-0.35606250625,0.039073213125,1.069126455,-9.02557373125,-128.35693359,22.438049315625
233993,-0.3624101625,0.008799775624999999,1.06668504875,-1.792907715625,-147.82714843375,29.36553955
233996,-0.28477344375,0.044932588125,1.05203661125,3.944396971875,-156.433105465,40.382385253125
233999,-0.25547656875,0.062022431875,1.055210439375,10.26153564375,-158.56933593375,37.147521971875
234002,-0.25059375625,0.087901338125,1.042026845625,10.99395751875,-163.238525386875,35.072326659375
234005,-0.12168750625,0.093272431875,1.030308095625,6.996154784375,-146.820068355625,29.335021971875
234008,-0.07676563125,0.10670016625,1.020542470625,0.9231567375,-121.734619136875,21.36993408125
234011,-0.0098711,0.094493135,0.996128408125,-14.88494873125,-98.358154293125,24.48272705
234014,-0.07237110000000001,0.063975556875,0.94461473625,-18.91326904375,-87.82958984,11.817932128125
234017,-0.09239063125,0.022471650625,0.945835439375,-20.0729370125,-70.1293945275,-4.417419434375
234020,-0.103865240625,0.031993135,0.991733876875,-17.69256591875,-61.859130855625,-20.5612182625
234023,-0.160017584375,0.030284150625,1.005894033125,-13.450622559375,-61.40136718375,-27.854919434375
234026,-0.216169928125,0.042002900625,1.00857958,-3.379821778125,-67.99316405875,-29.563903809375
234029,-0.153669928125,0.067881806875,1.00418504875,5.25665283125,-71.89941405875,-19.218444825
234032,-0.127791021875,0.054209931875,1.010288564375,19.203186034375,-74.401855465,-17.81463623125
234035,-0.166853521875,0.07642672875,0.97195848625,32.875061034375,-83.892822261875,-12.382507325
234038,-0.102888678125,0.116221650625,1.015659658125,41.481018065625,-98.419189449375,3.2424926750000003
234041,-0.015730475,0.17896579125,1.060093251875,40.7180786125,-91.278076168125,11.329650878125
234044,0.007218743749999998,0.25611422875,1.0408061425,26.771545409375,-83.709716793125,14.961242675
234047,0.089982415625,0.250987275625,1.030308095625,10.353088378125,-68.1762695275,18.653869628125
234050,0.10292186875,0.255870088125,0.97781786125,-5.85174560625,-47.088623043125,25.733947753125
234053,0.1942304625,0.207774385,0.9685405175,-18.91326904375,-16.4184570275,22.438049315625
234056,0.198869134375,0.158702119375,0.948032705,-32.554626465625,12.725830081875,7.08770751875
234059,0.07069530625,0.10425876,0.89920458,-50.3463745125,15.045166019375,-1.2741088875
234062,0.12342968125,0.067149385,0.90945848625,-62.49237060625,16.23535156625,-8.65936279375
234065,0.111466790625,-0.005360380625,0.873569814375,-67.31414795,32.196044925625,-9.117126465625
234068,0.170060540625,-0.09154202125,0.9099467675,-61.3327026375,52.4291992225,-11.7721557625
234071,0.2586835875,0.002940400625,0.930210439375,-48.75946045,105.499267581875,3.0288696281250003
234074,0.1043867125,-0.186024443125,0.619663564375,-21.171569825,178.009033206875,2.5711059562500003
234077,0.410783196875,-0.121083036875,0.839390126875,12.519836425,235.71777344125,-24.375915528125
234080,0.415177728125,0.007823213124999999,1.01004442375,17.64678955,336.6088867225,-36.36932373125
234083,0.090958978125,0.164073213125,0.822788564375,3.0288696281250003,364.959716800625,-20.103454590625
234086,-0.220076178125,0.11744235375,0.975376455,6.4163208,373.04687500375,-11.2838745125
234089,-0.412458990625,0.020274385,0.952671376875,24.452209471875,353.546142581875,18.379211425
234092,-0.688337896875,-0.401600615,0.507847158125,86.738586425,272.308349613125,28.053283690625
234095,-0.22422656875,-0.19652249,0.740757314375,132.789611815625,220.70312500375,42.24395751875
234098,-0.07774219375,0.022959931875,0.757358876875,122.169494628125,293.914794925625,-11.070251465625
234101,-0.14414844375,0.30787204125,0.737339345625,69.496154784375,369.293212894375,-81.809997559375
234104,-0.26377735,0.17457126,0.6384623925,22.315979003125,411.834716800625,-100.364685059375
234107,-0.436873053125,-0.038319365,0.592319814375,17.250061034375,434.844970706875,-62.12615966875
234110,-0.917341803125,-0.12181545875,0.58670458,46.39434814375,414.581298831875,-47.050476075
234113,-1.10899219375,-0.068836943125,0.63016161125,70.411682128125,359.344482425625,-26.35955810625
234116,-1.18516406875,0.063975556875,0.70779833,88.172912596875,279.66308594125,-28.8619995125
234119,-1.0499101625,0.158213838125,0.674595205,84.877014159375,214.569091800625,-53.58123779375
234122,-0.9932695375,0.298838838125,0.6228373925,65.6204223625,172.943115238125,-28.648376465625
234125,-0.963728521875,0.225108369375,0.5779155175,47.5540161125,145.56884766,17.2805786125
234128,-0.95127735,0.128428681875,0.5447123925,45.509338378125,134.64355469125,47.462463378125
234131,-0.938337896875,0.034190400625,0.47977098625,52.162170409375,123.41308594125,34.1262817375
234134,-0.95469531875,0.156260713125,0.48123583,65.0100708,108.94775391,39.2532348625
234137,-1.0420976625,0.2400009475,0.487095205,65.254211425,98.26660156625,68.73321533125
234140,-1.06211719375,0.1501571975,0.53445848625,67.481994628125,80.0170898475,74.4094848625
234143,-0.988142584375,0.227061494375,0.5154155175,63.758850096875,51.14746094125,58.204650878125
234146,-0.942244146875,0.27173922875,0.522251455,44.105529784375,31.6772460975,33.027648925
234149,-0.931501959375,0.28248141625,0.55789598625,27.992248534375,-1.190185543125,19.355773925
234152,-0.87559375625,0.10035251,0.409214345625,34.339904784375,-16.937255855625,-30.5709838875
234155,-0.79160938125,0.26295016625,0.444370595625,36.445617675,-14.831542965,-76.927185059375
234157,-0.806013678125,0.365733369375,0.449741689375,23.750305175,-15.533447261875,-63.743591309375
234160,-1.079939459375,0.233409150625,0.536655751875,3.639221190625,-51.727294918125,-83.4274292
234163,-1.10117969375,0.306651338125,0.5564311425,-19.46258545,-110.29052734,-98.50311279375
234166,-1.010603521875,0.43482516625,0.53543504875,-58.250427246875,-159.79003905875,-50.16326904375
234169,-0.74473438125,0.35670016625,0.5115092675,-88.554382325,-180.450439449375,-1.670837403125
234172,-0.634626959375,0.08863376,0.475376455,-85.166931153125,-163.45214843375,32.875061034375
234175,-0.473982428125,-0.091786161875,0.4919780175,-49.400329590625,-108.82568359,25.123596190625
234178,-0.45127735,-0.081532255625,0.52566942375,-5.11932373125,-44.708251949375,26.771545409375
234181,-0.38926563125,-0.014149443125,0.53445848625,27.83966064375,14.77050781625,20.057678221875
234184,-0.368513678125,0.07837985375,0.535679189375,36.170959471875,75.347900394375,-10.398864746875
234187,-0.65098438125,0.093760713125,0.4743998925,26.8020629875,89.59960937875,-53.2760620125
234190,-0.964705084375,0.012217744375,0.528843251875,31.074523925,57.98339844125,-108.26873779375
234193,-1.10752735,0.102305635,0.514438955,36.170959471875,16.23535156625,-136.253356934375
234196,-1.1651445375,0.224620088125,0.55887254875,7.2708129875,-26.36718749625,-108.604431153125
234199,-1.2452226625,0.18970797875,0.61356004875,-15.98358154375,-58.685302730625,-95.69549560625
234202,-1.017927740625,0.3278915725,0.6638530175,-63.8961792,-90.57617187125,-120.4147338875
234205,-0.782576178125,0.35670016625,0.5740092675,-124.62615966875,-73.60839843375,-138.42010498125
234208,-0.6739335999999999,0.246104463125,0.58231004875,-154.441833496875,-12.57324218375,-104.148864746875
234211,-0.7764726625,0.10181735375,0.612827626875,-148.643493653125,36.0717773475,-14.671325684375
234214,-0.785505865625,-0.03587795875,0.571812001875,-113.88397216875,69.061279300625,42.152404784375
234217,-0.756208990625,-0.0803115525,0.5271342675,-84.70916748125,111.45019531625,74.531555175
234220,-0.695417975,-0.181141630625,0.492710439375,-48.240661621875,123.016357425625,80.482482909375
234223,-0.68809375625,-0.19701077125,0.49051317375,-7.1334838875,137.115478519375,61.988830565625
234226,-0.728865240625,-0.13939358375,0.41043504875,26.527404784375,156.73828125375,37.818908690625
234229,-0.898542975,-0.062489286875,0.430698720625,41.02325439375,152.22167969125,16.212463378125
234232,-0.924177740625,0.026866181875,0.392612783125,46.88262939375,147.979736331875,12.611389159375
234235,-0.888044928125,0.0876571975,0.35184129875000003,37.147521971875,154.602050785,28.38897705
234238,-0.87461719375,0.05103610375,0.373569814375,39.039611815625,175.079345706875,45.143127440625
234241,-1.147810553125,0.115245088125,0.455845205,39.863586425,158.294677738125,84.11407470625
234244,-1.05918750625,0.121592744375,0.44949754875,28.236389159375,140.8081054725,76.881408690625
234247,-1.025251959375,0.09205172875,0.397983876875,8.644104003125,129.364013675625,47.49298095625
234250,-0.914167975,0.019053681875,0.32156786125000003,15.419006346875,142.7612304725,11.146545409375
234253,-1.1065507875,0.134776338125,0.32718309562500003,16.090393065625,122.650146488125,-12.474060059375
234256,-1.16367969375,0.127940400625,0.33597215812500003,-13.938903809375,97.930908206875,-49.827575684375
234259,-1.368513678125,0.12232516625,0.38602098625,-12.138366699999999,37.078857425625,-87.76092529375
234262,-1.720564459375,0.037120088125,0.37039598625,-10.887145996875,-72.38769530875,-98.0758667
234265,-1.61387500625,0.137461885,0.54129442375,-31.97479248125,-195.587158199375,-83.73260498125
234268,-1.137068365625,0.054209931875,0.37332567375,-38.230895996875,-289.398193355625,-73.72283935625
234271,-0.33555469375,-0.040516630625,0.118687001875,-12.2604370125,-275.75683593375,-8.29315185625
234274,-0.024275396875,-0.133290068125,0.157749501875,24.238586425,-173.8891601525,93.02520751875
234277,-0.118513678125,-0.238270536875,0.25052293937500003,55.6106567375,-68.450927730625,145.14923095625
234280,-0.816755865625,-0.182606474375,0.492710439375,83.25958251875,-31.402587886875,98.793029784375
234283,-0.899275396875,0.0009872756249999998,0.34720262687500003,92.3538208,-53.0395507775,17.58575439375
234286,-0.883162115625,0.131846650625,0.28689989250000003,68.61114501875,-70.3735351525,-56.9381713875
234289,-1.0645586,0.282237275625,0.32352098625000003,38.307189940625,-74.005126949375,-64.414978028125
234292,-1.408552740625,0.364024385,0.549595205,-9.3307495125,-122.253417965,-46.80633545
234295,-1.244978521875,0.179209931875,0.62039598625,-58.95233154375,-166.01562499625,-70.67108154375
234298,-0.94346485,0.1052353225,0.568882314375,-84.648132325,-167.510986324375,-116.844177246875
234301,-0.821638678125,0.10377047875,0.61404833,-108.085632325,-138.946533199375,-119.6823120125
234304,-0.83555469375,0.105967744375,0.56668504875,-110.1608276375,-88.714599605625,-87.27264404375
234307,-0.855574225,-0.0002334275000000002,0.5466655175,-113.914489746875,-40.40527343375,-58.494567871875
234310,-0.816267584375,-0.0724990525,0.5329936425,-100.059509278125,-0.18310546500000013,-61.241149903125
234313,-0.6085039125,-0.038319365,0.45242723625,-83.12225341875,58.83789062875,-30.540466309375
234316,-0.503767584375,-0.065907255625,0.403843251875,-81.1080932625,108.52050781625,-22.239685059375
234319,-0.331404303125,-0.078114286875,0.39578661125,-95.93963623125,188.079833988125,-35.179138184375
234322,-0.533064459375,-0.174305693125,0.40945848625,-101.524353028125,234.283447269375,-60.722351075
234325,-0.75840625625,-0.1076553025,0.409702626875,-110.95428466875,240.447998050625,-38.93280029375
234328,-1.000349615625,-0.18724514625,0.36746629875,-96.153259278125,209.625244144375,25.428771971875
234331,-1.136091803125,-0.232411161875,0.429233876875,-70.42694091875,151.947021488125,78.468322753125
234334,-1.144392584375,-0.266590849375,0.431675283125,-41.00799560625,106.8725585975,55.2444458
234337,-1.114119146875,-0.18138577125,0.4177592675,-35.27069091875,79.65087891,45.96710205
234340,-0.991072271875,-0.078602568125,0.381870595625,-31.913757325,68.35937500375,13.343811034375
234343,-0.90196094375,-0.056629911875,0.34402879875000003,-43.57147216875,67.687988285,-29.22821045
234346,-0.883650396875,-0.0373428025,0.32547411125000003,-66.03240966875,82.000732425625,-60.66131591875
234349,-0.910017584375,-0.1057021775,0.30374559562500003,-68.6569213875,87.799072269375,-64.81170654375
234352,-0.863630865625,-0.23021389625,0.26810106437500003,-72.044372559375,93.87207031625,-89.012145996875
234355,-0.920759771875,-0.20189358375,0.25638231437500003,-60.569763184375,95.123291019375,-89.4088745125
234358,-0.99571094375,-0.183583036875,0.23953661125,-69.20623779375,84.83886719125,-47.96600341875
234361,-0.949324225,-0.42357327125,0.2165873925,-41.038513184375,74.34082031625,-55.747985840625
234364,-1.199568365625,-0.153309599375,0.28812059562500003,-38.81072998125,53.22265625375,-48.301696778125
234367,-1.125837896875,-0.241444365,0.200229970625,-37.925720215625,5.7067871131249985,-39.085388184375
234370,-1.07774219375,-0.2892959275,0.233188955,-13.206481934375,-28.015136715,-11.680603028125
234373,-1.012556646875,-0.318348661875,0.233188955,-0.633239746875,-46.14257812125,-24.253845215625
234376,-1.252302740625,-0.27611233375,0.27029833000000003,17.860412596875,-76.29394530875,18.531799315625
234379,-1.185408209375,-0.4045303025,0.32596239250000003,53.10821533125,-127.105712886875,51.551818846875
234382,-1.10899219375,-0.319325224375,0.32815965812500003,79.261779784375,-167.2973632775,45.4788208
234385,-1.08262500625,-0.330555693125,0.36404833,107.826232909375,-220.5200195275,11.23809814375
234388,-0.822615240625,-0.2287490525,0.361362783125,118.141174315625,-253.753662105625,-49.55291748125
234391,-0.619001959375,-0.073475615,0.29202684562500003,103.4622192375,-227.96630859,-51.414489746875
234394,-0.724470709375,-0.005848661875,0.30350145500000003,84.297180175,-162.017822261875,-18.516540528125
234397,-0.75547656875,-0.05833889625,0.34622606437500003,68.9163208,-99.761962886875,15.75469970625
234400,-0.7901445375,-0.19115139625,0.41629442375,68.275451659375,-91.217041011875,-18.211364746875
234403,-0.754255865625,-0.18480374,0.4079936425,69.679260253125,-82.0922851525,-21.690368653125
234406,-0.70371875625,-0.136708036875,0.33719286125000003,76.332092284375,-50.506591793125,15.113830565625
234409,-0.591658209375,-0.10667874,0.3689311425,79.566955565625,-5.0659179650000015,50.209045409375
234412,-0.6475664125,-0.06615139625,0.475376455,68.24493408125,43.243408206875,47.3098754875
234415,-0.711287115625,-0.0510146775,0.43484911125,47.12677001875,77.453613285,5.592346190625
234418,-0.72129688125,-0.085438505625,0.408726064375,26.710510253125,98.846435550625,-12.44354248125
234421,-0.808455084375,-0.0803115525,0.464390126875,2.0217895500000003,103.546142581875,-15.708923340625
234424,-0.891462896875,-0.027333036875,0.444858876875,-12.870788575,102.41699219125,-22.911071778125
234427,-1.0186601625,0.073741181875,0.489780751875,-60.05096435625,90.545654300625,-21.41571045
234430,-1.0674882875,0.054698213125,0.499546376875,-107.41424560625,69.152832035,-24.9557495125
234433,-1.024275396875,0.00318454125,0.46951708,-137.535095215625,42.755126956875,-8.78143310625
234436,-0.97129688125,-0.18431545875,0.387729970625,-138.78631591875,22.94921875375,33.1497192375
234439,-0.92149219375,-0.1974990525,0.39529833,-111.1373901375,11.96289062875,52.9251098625
234442,-0.896345709375,-0.184071318125,0.363804189375,-93.650817871875,12.420654300625,73.951721190625
234445,-0.862166021875,-0.459950224375,0.3806498925,-43.418884278125,22.186279300625,55.976867675
234448,-0.842146490625,-0.3010146775,0.36014208000000003,1.35040283125,36.86523437875,46.15020751875
234451,-0.90196094375,-0.105946318125,0.364292470625,-3.9596557625,47.97363281625,49.354553221875
234454,-1.036482428125,-0.115223661875,0.37332567375,-11.619567871875,38.665771488125,41.26739501875
234457,-0.9952226625,-0.122547880625,0.37332567375,-19.40155029375,25.848388675625,32.6614379875
234460,-1.099958990625,-0.083485380625,0.36551317375,-34.4772338875,12.115478519375,30.311584471875
234463,-1.022810553125,-0.222645536875,0.40652879875,-26.023864746875,2.655029300625,22.926330565625
234466,-1.070662115625,-0.112782255625,0.35940965812500003,-19.432067871875,-24.139404293125,21.0647583
234469,-0.9864335999999999,-0.0432021775,0.367222158125,-34.41619873125,-32.65380859,16.3040161125
234472,-0.929548834375,-0.18040920875,0.35428270500000003,-34.11102295,-33.2641601525,-5.97381591875
234475,-0.85703906875,-0.145497099375,0.35159715812500003,-33.19549560625,-31.5551757775,-16.6549682625
234478,-1.119978521875,-0.0471084275,0.37820848625,-43.907165528125,-30.120849605625,-6.492614746875
234481,-0.755232428125,-0.1506240525,0.35574754875000003,-65.4830932625,-33.20312499625,6.385803221875
234484,-0.774763678125,-0.192372099375,0.388218251875,-62.0651245125,-31.280517574375,-28.495788575
234487,-0.832136725,-0.3771865525,0.361362783125,-28.92303466875,-13.763427730625,-46.104431153125
234490,-0.900740240625,-0.15794827125,0.37430223625,-14.183044434375,-6.7138671837500015,-40.64178466875
234493,-0.996931646875,-0.14818264625,0.404331533125,-18.455505371875,-7.2021484337500015,-49.67498779375
234496,-0.653669928125,0.151866181875,0.25272020500000003,-51.445007325,7.4157714881249985,-65.940856934375
234499,-0.80283985,-0.230458036875,0.370640126875,-57.945251465625,27.984619144375,-73.265075684375
234502,-0.843123053125,-0.285633818125,0.34842333000000003,-36.705017090625,34.72900391,-79.917907715625
234505,-1.484724615625,-0.252430693125,0.489780751875,-15.73944091875,-1.312255855625,-95.420837403125
234508,-0.827498053125,-0.188465849375,0.30594286125000003,-60.203552246875,-21.453857418125,-170.03631591875
234511,-0.884138678125,-0.19261624,0.37332567375,-60.508728028125,-18.737792965,-187.767028809375
234514,-0.89512500625,-0.344227568125,0.366001455,-48.667907715625,-20.538330074375,-101.951599121875
234517,-0.87266406875,-0.48119045875,0.363315908125,-9.727478028125,-36.590576168125,-29.624938965625
234520,-0.761580084375,-0.403309599375,0.385532705,20.88165283125,-36.651611324375,4.89044189375
234523,-0.7764726625,-0.35667874,0.37918504875,31.349182128125,-32.867431636875,19.29473876875
234526,-0.8536210999999999,-0.315663115,0.36844286125,41.481018065625,-36.102294918125,29.42657470625
234529,-0.916365240625,-0.249989286875,0.35892137687500003,38.09356689375,-38.33007812125,-0.29754638749999995
234532,-0.934919928125,-0.354481474375,0.39871629875,33.241271971875,-36.62109374625,-49.43084716875
234535,-0.9503007875,-0.4201553025,0.404331533125,48.71368408125,-44.403076168125,-92.460632325
234538,-0.866072271875,-0.346668974375,0.41336473625,59.242248534375,-43.39599609,-95.970153809375
234541,-0.787947271875,-0.30247952125,0.386265126875,65.345764159375,-22.88818359,-67.070007325
234544,-0.735701178125,-0.31712795875,0.420688955,65.68145751875,-0.2746581993750001,-40.214538575
234547,-0.773542975,-0.33372952125,0.43436083,67.115783690625,23.49853516,-18.455505371875
234550,-0.824324225,-0.37767483375,0.39920458,73.280334471875,44.31152344125,-16.8991088875
234553,-0.746199225,-0.40990139625,0.34744676750000003,92.018127440625,82.27539062875,-28.221130371875
234556,-0.74668750625,-0.40892483375,0.409702626875,111.244201659375,105.926513675625,-24.620056153125
234559,-0.649763678125,-0.243153349375,0.32132372062500003,116.554260253125,145.14160156625,-4.356384278125
234562,-1.0460039125,-0.05833889625,0.5349467675,75.843811034375,100.677490238125,35.987854003125
234565,-1.082380865625,-0.15208889625,0.430698720625,39.80255126875,36.407470706875,51.124572753125
234568,-0.802107428125,-0.292225615,0.34647020500000003,35.194396971875,26.397705081875,36.445617675
234571,-0.6895585999999999,-0.290028349375,0.23367723625,41.969299315625,74.8901367225,10.01739501875
234574,-0.921980475,-0.24779202125,0.35037645500000003,39.9856567375,82.64160156625,15.87677001875
234577,-1.05528125625,-0.23900295875,0.43094286125,32.081604003125,46.295166019375,27.626037596875
234580,-1.0333086,-0.259266630625,0.379429189375,37.11700439375,19.805908206875,55.000305175
234583,-1.1202226625,-0.3771865525,0.382358876875,61.77520751875,-11.71874999625,62.62969970625
234586,-1.244001959375,-0.30638577125,0.4372905175,91.224670409375,-64.0258789025,37.7883911125
234589,-1.128279303125,-0.147938505625,0.430698720625,97.41973876875,-118.988037105625,25.9475708
234592,-0.7979570375,-0.02904202125,0.442417470625,65.0100708,-142.70019530875,-8.72039795
234595,-0.546736334375,-0.0041396775,0.3982280175,22.773742675,-117.523193355625,-44.639587403125
234598,-0.49082813125,-0.073719755625,0.33597215812500003,-11.161804199999999,-71.319580074375,-44.517517090625
234601,-0.652693365625,-0.234852568125,0.39871629875,-7.896423340625,-40.1000976525,20.668029784375
234604,-0.936384771875,-0.46214749,0.494175283125,40.65704345625,-56.7016601525,74.71466064375
234607,-0.983748053125,-0.496571318125,0.509800283125,109.0774536125,-109.74121093375,83.99200439375
234610,-1.11094531875,-0.37572170875,0.47293504875,151.98516845625,-145.111083980625,113.868713378125
234613,-0.962263678125,-0.090809599375,0.522251455,177.37579345625,-175.018310543125,144.874572753125
234616,-0.773542975,-0.0236709275,0.37625536125,143.7454223625,-88.592529293125,92.109680175
234619,-0.882917975,-0.026844755625,0.609409658125,128.54766845625,-83.892822261875,69.435119628125
234622,-1.08653125625,0.041026338125,0.858921376875,120.338439940625,-172.48535155875,115.272521971875
234625,-0.812361334375,0.039073213125,0.5974467675,102.363586425,-193.389892574375,118.446350096875
234628,-0.82627735,0.09302829125,0.604526845625,98.5794067375,-139.16015624625,108.8333129875
234631,-0.84971485,0.176280244375,0.64871629875,72.486877440625,-117.2485351525,87.5930786125
234634,-0.717146490625,0.199717744375,0.610386220625,30.555725096875,-94.17724609,33.57696533125
234637,-0.56700000625,0.129405244375,0.57840379875,-0.08392334062499995,-42.022705074375,-7.92694091875
234640,-0.613142584375,0.12427829125,0.602085439375,-26.23748779375,-8.30078124625,-12.80975341875
234643,-0.53184375625,0.088389619375,0.519565908125,-39.756774903125,12.1459960975,-13.05389404375
234646,-0.507185553125,0.04517672875,0.51248583,-34.90447998125,45.3491210975,-15.953063965625
234649,-0.468611334375,0.060557588125,0.59500536125,-28.343200684375,88.37890625375,3.2119750968750003
234652,-0.431990240625,-0.0002334275000000002,0.524448720625,-31.211853028125,147.82714844125,40.351867675
234655,-0.374373053125,-0.0764053025,0.46023973625,-17.93670654375,218.13964844125,51.307678221875
234658,-0.334822271875,-0.119618193125,0.39676317375,-5.271911621875,291.320800785,26.710510253125
234661,-0.309919928125,-0.19017483375,0.33499559562500003,43.46466064375,350.891113285,64.765930175
234664,-0.476912115625,-0.180165068125,0.24734911125,100.196838378125,382.87353516,118.324279784375
234667,-0.854353521875,-0.142567411875,0.28299364250000003,138.465881346875,350.555419925625,110.939025878125
234670,-1.134138678125,0.00709079125,0.27176317375000003,155.128479003125,251.800537113125,48.316955565625
234673,-1.09141406875,0.223155244375,0.151401845625,139.442443846875,208.648681644375,1.777648925
234676,-1.45371875625,0.471202119375,0.215366689375,108.619689940625,146.48437500375,-56.2057495125
234679,-1.874861334375,0.57935641625,0.455112783125,12.275695800000001,14.953613285,-96.397399903125
234682,-1.7569414125,0.5720321975,0.593784658125,-115.5319213875,-103.8208007775,-137.9928588875
234685,-1.51817188125,0.172373994375,0.517124501875,-170.372009278125,-171.112060543125,-180.839538575
234688,-1.204939459375,0.017588838125,0.459019033125,-161.033630371875,-170.593261715,-164.54315185625
234691,-1.18565235,-0.05150295875,0.467319814375,-137.80975341875,-144.1040039025,-73.997497559375
234694,-1.236677740625,-0.102528349375,0.5154155175,-95.45135498125,-153.07617187125,-4.3258667
234697,-1.11387500625,-0.131825224375,0.562534658125,-63.46893310625,-209.71679687125,-15.281677246875
234700,-0.785017584375,-0.077137724375,0.4001811425,-55.9616088875,-208.92333984,-62.3092651375
234702,-0.4395585999999999,-0.085926786875,0.191440908125,-50.621032715625,-150.787353511875,-72.898864746875
234705,-0.342146490625,-0.0392959275,0.215854970625,-37.6510620125,-37.872314449375,-41.8014526375
234708,-0.566267584375,-0.14818264625,0.31497606437500003,-29.8385620125,16.7846679725,-14.15252685625
234711,-0.67442188125,-0.18870999,0.33548387687500003,3.4866333000000003,49.92675781625,9.803771971875
234714,-0.75254688125,-0.153797880625,0.36795458,29.79278564375,64.270019535,33.1497192375
234717,-0.808455084375,-0.11058499,0.4138530175,51.918029784375,74.615478519375,17.64678955
234720,-0.634138678125,0.280772431875,0.28055223625000003,13.6184692375,91.0034179725,-15.159606934375
234723,-0.6612382875,0.35670016625,0.32864793937500003,-95.69549560625,143.280029300625,-129.6920776375
234726,-0.6895585999999999,0.2028915725,0.29910692375000003,-168.846130371875,167.083740238125,-166.679382325
234729,-0.630232428125,0.007823213124999999,0.27640184562500003,-198.2955932625,188.079833988125,-132.3776245125
234732,-0.778181646875,-0.225575224375,0.369663564375,-160.02655029375,180.23681641,-73.17352295
234735,-0.99864063125,-0.2463271775,0.409702626875,-129.570007325,128.29589844125,-10.61248779375
234738,-0.993513678125,-0.346913115,0.23514208,-97.16033935625,99.212646488125,15.174865721875
234741,-1.38145313125,-0.435536161875,0.2478373925,-51.933288575,46.203613285,39.161682128125
234744,-1.723005865625,-0.613758818125,0.375522939375,31.25762939375,-46.63085937125,40.748596190625
234747,-1.539412115625,-0.47386624,0.471714345625,106.8801879875,-131.134033199375,35.16387939375
234750,-1.31700000625,-0.345204130625,0.506870595625,141.578674315625,-178.83300780875,60.371398925
234753,-1.0147539125,-0.22923733375,0.37039598625,143.07403564375,-180.206298824375,85.731506346875
234756,-0.83067188125,-0.20287014625,0.408237783125,161.3235473625,-157.7758789025,105.35430908125
234759,-0.875837896875,-0.11009670875,0.433140126875,159.8587036125,-117.79785155875,118.5989379875
234762,-0.97422656875,-0.020008818125,0.4275248925,141.5481567375,-81.268310543125,92.201232909375
234765,-1.117048834375,0.0173446975,0.49246629875,126.71661376875,-88.98925780875,72.303771971875
234768,-0.901228521875,0.11597751,0.4138530175,92.628479003125,-88.80615234,45.509338378125
234771,-0.809919928125,0.1599228225,0.379917470625,51.39923095625,-79.376220699375,37.757873534375
234774,-0.765730475,0.184336885,0.30594286125000003,15.02227783125,-66.34521484,19.264221190625
234777,-0.6045976625,0.20191501,0.30594286125000003,-12.80975341875,-29.205322261875,27.137756346875
234780,-0.5850664125,0.140147431875,0.32840379875000003,-34.873962403125,22.430419925625,48.0422973625
234783,-0.62266406875,0.044932588125,0.361362783125,-42.655944825,66.40625000375,66.47491455
234786,-0.595564459375,0.020518525625,0.34402879875000003,-39.66522216875,107.391357425625,74.928283690625
234789,-0.646833990625,-0.0012099900000000002,0.35550340812500003,-46.348571778125,131.83593750375,82.77130126875
234792,-0.581404303125,-0.14818264625,0.33865770500000003,-18.760681153125,157.28759766,121.009826659375
234795,-0.70176563125,-0.203602568125,0.32083543937500003,57.441711425,183.380126956875,161.01837158125
234798,-0.597761725,-0.13158108375,0.179233876875,121.7727661125,206.90917969125,173.40850830000002
234801,-0.54551563125,0.02173922875,0.09891161125,154.762268065625,254.15039062875,139.65606689375
234804,-0.5645585999999999,0.148448213125,0.142612783125,151.00860595625,290.863037113125,68.00079345625
234807,-0.87461719375,0.272959931875,0.1775248925,125.221252440625,309.9975585975,-23.9791870125
234810,-1.0616289125,0.444834931875,0.162632314375,80.604553221875,268.524169925625,-21.751403809375
234813,-1.20908985,0.450694306875,0.121616689375,38.09356689375,229.9194335975,-18.18084716875
234816,-1.438826178125,0.515635713125,0.169956533125,-3.807067871875,141.11328125375,-44.822692871875
234819,-2.1241289125,0.55982516625,0.28567918937500003,-79.765319825,-1.2817382775,-102.622985840625
234822,-2.115095709375,0.456553681875,0.3728373925,-170.585632325,-149.108886715,-173.3932495125
234825,-1.6036211,0.232432588125,0.26590379875000003,-230.644226075,-242.584228511875,-230.552673340625
234828,-1.232771490625,0.112803681875,0.181187001875,-227.073669434375,-231.7504882775,-199.363708496875
234831,-1.006697271875,0.052256806875,0.185093251875,-193.77899169999998,-181.671142574375,-75.370788575
234834,-1.010115240625,0.028086885,0.23172411125,-144.64569091875,-157.684326168125,45.143127440625
234837,-1.153181646875,0.05347751,0.31863817375000003,-108.9401245125,-183.135986324375,112.9837036125
234840,-0.9581132875,0.077159150625,0.227573720625,-88.98162841875,-202.362060543125,105.53741455
234843,-0.79063281875,0.0271103225,0.119663564375,-69.81658935625,-188.934326168125,97.17559814375
234846,-0.54453906875,0.099131806875,0.15311083,-49.55291748125,-126.190185543125,165.382385253125
234849,-0.630720709375,0.138194306875,0.213657705,-38.841247559375,-73.0590820275,229.103088378125
234852,-0.6710039125,0.208506806875,0.27029833000000003,-38.780212403125,-33.386230465,250.770568846875
234855,-0.653181646875,0.245616181875,0.31717333000000003,-42.4118042,5.5236816443749985,253.730773925
234858,-0.66270313125,0.25513766625,0.28104051750000003,-36.49139404375,54.168701175625,264.5950317375
234861,-0.68516406875,0.29908297875,0.27957567375000003,-37.22381591875,90.39306641,283.607482909375
234864,-0.7198320375,0.309092744375,0.30447801750000003,-32.554626465625,107.818603519375,295.234680175
234867,-0.7217851625,0.3767196975,0.26858934562500003,-30.14373779375,113.03710937875,296.63848876875
234870,-0.64414844375,0.28394626,0.174595205,-18.6080932625,99.334716800625,338.26446533125
234873,-0.760115240625,0.659190400625,0.35110887687500003,-18.66912841875,138.702392581875,317.604064940625
234876,-1.081892584375,1.09791110375,0.479282705,-105.857849121875,161.773681644375,254.432678221875
234879,-1.4395586,0.93189547875,0.52371629875,-191.2155151375,93.048095706875,209.297180175
234882,-1.4444414125,0.523936494375,0.711460439375,-190.116882325,-32.71484374625,222.267150878125
234885,-1.0538164125,0.250743135,0.545688955,-126.121520996875,-125.61035155875,212.928771971875
234888,-0.709822271875,0.411143525625,0.30838426750000003,-89.073181153125,-125.579833980625,149.42169189375
234891,-0.65879688125,0.60084079125,0.26932176750000003,-114.73846435625,-81.78710937125,97.084045409375
234894,-0.67442188125,0.63795016625,0.2302592675,-144.432067871875,-32.562255855625,99.00665283125
234897,-0.705427740625,0.465586885,0.29910692375000003,-140.55633545,-0.7324218712500001,141.24298095625
234900,-0.81846485,0.190928681875,0.36160692375,-56.4498901375,-10.040283199375,161.87286376875
234903,-0.78721485,0.0798446975,0.447788564375,55.73272705,-58.441162105625,199.012756346875
234906,-0.67149219375,0.397959931875,0.372104970625,114.082336425,-83.74023437125,225.5325317375
234909,-0.6475664125,0.548350556875,0.23514208,117.652893065625,-75.7446289025,204.2922973625
234912,-0.307478521875,0.601084931875,0.2107280175,104.804992675,-21.97265624625,174.537658690625
234915,-0.06309375625,0.608409150625,0.161167470625,95.22247314375,87.860107425625,109.901428221875
234918,0.00966015,0.574229463125,0.040073720625,87.806701659375,204.895019535,4.03594970625
234921,-0.012068365625,0.55591891625,0.020542470625000003,64.6438598625,291.046142581875,-136.558532715625
234924,-0.1612382875,0.633311494375,-0.03585401375,21.095275878125,345.6420898475,-264.122009278125
234927,-0.192244146875,0.762461885,-0.126918466875,-55.04608154375,406.402587894375,-347.58758545
234930,-0.34580859999999997,0.734385713125,-0.2131001075,-147.5143432625,453.5522460975,-390.403747559375
234933,-0.66563281875,0.4665634475,-0.114711435625,-175.193786621875,450.531005863125,-367.637634278125
234936,-1.02940235,0.405772431875,-0.009486826249999995,-143.48602295,412.567138675625,-240.5319213875
234939,-1.11680469375,0.44410251,-0.014369638749999997,-136.375427246875,352.60009766,-169.883728028125
234942,-0.9795976625,0.35425876,-0.06173292,-141.075134278125,320.617675785,-186.790466309375
234945,-1.111677740625,0.31080172875,-0.072719248125,-125.816345215625,305.66406250375,-188.621520996875
234948,-1.427107428125,0.373545869375,-0.029262216875,-136.680603028125,252.8686523475,-120.628356934375
234951,-1.69200000625,0.252452119375,0.08035692375,-120.53680420000002,161.895751956875,-69.26727295
234954,-1.92442188125,0.199229463125,0.18387254875,-89.8971557625,70.9838867225,-45.4635620125
234957,-2.032087896875,0.23755954125,0.234897939375,-50.315856934375,-33.69140624625,-19.187927246875
234960,-2.0128007875,0.4079696975,0.33939012687500003,-36.796569825,-148.284912105625,35.8352661125
234963,-1.70664844375,0.41822360375,0.209751455,-22.08709716875,-249.694824215,130.836486815625
234966,-1.270369146875,0.2888290725,0.063022939375,7.08770751875,-302.947998043125,191.1087036125
234969,-0.932478521875,0.22779391625,0.0447123925,42.762756346875,-300.964355465,219.825744628125
234972,-0.823591803125,0.319834931875,-0.011684091874999995,71.54083251875,-291.046142574375,219.337463378125
234975,-0.6749101625,0.2712509475,-0.0033833106249999967,87.806701659375,-271.5454101525,240.1809692375
234978,-0.684431646875,-0.011219755625,-0.004359873124999997,149.818420409375,-246.429443355625,283.515930175
234981,-0.6788164125,-0.065907255625,0.034214345625,269.020080565625,-241.7602539025,304.2678833
234984,-0.625105475,0.23170016625,0.022739736250000003,351.9973754875,-249.99999999625,299.7512817375
234987,-0.58848438125,0.713389619375,-0.06222120125,351.69219970625,-233.88671874625,283.485412596875
234990,-0.391462896875,0.745127900625,-0.083949716875,327.491760253125,-200.2563476525,257.69805908125
234993,-0.090193365625,0.97925876,-0.164516123125,268.898010253125,-129.180908199375,218.574523925
234996,0.05653515,1.080088838125,-0.212855966875,174.9954223625,-15.808105465,158.729553221875
234999,0.30262890000000003,1.0661728225,-0.237758310625,84.84649658125,114.01367187875,42.97637939375
235002,0.269181634375,0.9431259475,-0.34835401375,15.51055908125,248.04687500375,-130.36346435625
235005,0.079240228125,0.917491181875,-0.445277841875,-67.9244995125,341.949462894375,-300.65155029375
235008,-0.1661211,0.916026338125,-0.36495557625,-171.165466309375,390.106201175625,-381.431579590625
235011,-0.237654303125,0.780772431875,-0.360805185625,-214.95819091875,415.58837891,-423.728942871875
235014,-0.64024219375,0.55005954125,-0.138637216875,-245.59783935625,431.39648437875,-425.40740966875
235017,-1.078962896875,0.360850556875,0.014438955000000003,-234.97772216875,364.6850585975,-397.0260620125
235020,-0.98789844375,0.395030244375,-0.14718213875,-230.064392090625,321.35009766,-311.851501465625
235023,-1.07481250625,0.3532821975,-0.097133310625,-233.177185059375,278.289794925625,-247.97821045
235026,-1.199080084375,0.176524385,-0.038539560625,-199.119567871875,200.469970706875,-218.62030029375
235029,-1.232771490625,0.31129001,-0.05538526375,-162.437438965625,161.529541019375,-196.189880371875
235032,-1.427107428125,0.31129001,0.008823720625000003,-147.57537841875,121.2768554725,-168.0221557625
235035,-1.514021490625,0.21216891625,0.021519033125000003,-114.61639404375,43.273925785,-162.559509278125
235038,-1.6885820375,0.35279391625,0.052769033125,-107.749938965625,-31.768798824375,-136.5280151375
235041,-1.782576178125,0.16285251,0.12430223625,-79.978942871875,-89.752197261875,-56.38885498125
235044,-1.669783209375,0.060557588125,0.04324754875,-5.393981934375,-154.6020507775,31.074523925
235047,-1.515486334375,0.164561494375,-0.008754404374999997,59.120178221875,-209.564208980625,100.624084471875
235050,-1.412947271875,0.339366181875,0.067417470625,84.785461425,-255.4321289025,134.65118408125
235053,-1.1006914125,0.383311494375,-0.023402841875,94.6731567375,-288.51318359,158.27178955
235056,-0.84825000625,0.468760713125,-0.0978657325,112.43438720625,-298.58398437125,195.045471190625
235059,-0.80625781875,0.578135713125,-0.103480966875,94.00177001875,-301.300048824375,215.156555175
235062,-0.572126959375,0.574717744375,-0.111293466875,67.298889159375,-280.76171874625,226.57012939375
235065,-0.63828906875,0.28150485375,-0.074672373125,80.94024658125,-240.264892574375,250.465393065625
235068,-0.557478521875,-0.164051786875,-0.012416513749999995,196.632385253125,-218.68896484,242.591857909375
235071,-0.502302740625,-0.05443264625,-0.012660654374999995,328.86505126875,-203.338623043125,244.789123534375
235074,-0.370955084375,0.40064547875,-0.112758310625,396.461486815625,-178.22265624625,241.920471190625
235077,-0.2979570375,0.7985946975,-0.1310688575,371.315002440625,-122.07031249625,220.558166503125
235080,-0.195662115625,0.877940400625,-0.176967295,319.557189940625,-81.573486324375,181.922912596875
235083,0.064591790625,0.981211885,-0.20577588875,263.160705565625,1.58691406625,137.70294189375
235086,0.304337884375,0.96314547875,-0.45479932625,193.885803221875,133.697509769375,42.5491333
235089,0.123673821875,1.14185641625,-0.487270029375,104.042053221875,266.143798831875,-132.6217651375
235092,-0.246199225,1.221690400625,-0.44308057625,-49.278259278125,316.46728516,-306.26678466875
235095,-0.342634771875,1.304698213125,-0.33175245125,-209.434509278125,325.347900394375,-401.84783935625
235098,-0.468611334375,0.949717744375,-0.325404795,-332.38983154375,339.47753906625,-470.5123901375
235101,-0.6592851625,0.66920016625,-0.190883310625,-390.6784057625,351.56250000375,-478.294372559375
235104,-1.04160938125,0.40650485375,-0.1330219825,-382.041931153125,313.995361331875,-363.487243653125
235107,-1.096052740625,0.183604463125,-0.19503370125,-343.3151245125,249.420166019375,-231.92596435625
235110,-1.271345709375,0.10181735375,-0.016811044999999997,-269.859313965625,184.2651367225,-154.04510498125
235113,-1.268904303125,0.034678681875,-0.044887216875,-188.40789795,129.27246094125,-129.722595215625
235116,-1.27305469375,0.1599228225,-0.04854932625,-142.539978028125,114.654541019375,-134.941101075
235119,-1.38828906875,0.1638290725,0.005405751875000003,-105.70526123125,78.918457035,-135.337829590625
235122,-1.597517584375,0.038096650625,0.094761220625,-46.775817871875,22.58300781625,-107.41424560625
235125,-1.7139726625,0.171885713125,0.08523973625,15.113830565625,-60.211181636875,-38.841247559375
235128,-1.59336719375,0.339854463125,0.048374501875,41.664123534375,-136.35253905875,31.13555908125
235131,-1.566267584375,0.33912204125,0.0564311425,66.04766845625,-199.920654293125,70.625305175
235134,-1.345076178125,0.42994235375,0.009312001875000005,88.722229003125,-261.5356445275,101.417541503125
235137,-1.02403125625,0.548350556875,-0.11202588875,92.7200317375,-301.51367187125,132.148742675
235140,-0.633162115625,0.58521579125,-0.259242685625,89.97344970625,-277.008056636875,194.83184814375
235143,-0.8780351625,0.6306259475,0.06082567375,79.10919189375,-250.640869136875,237.80059814375
235146,-0.70176563125,0.457774385,-0.006801279374999997,81.67266845625,-302.917480465,248.512268065625
235149,-0.462263678125,0.28541110375,-0.05733838875,120.918273925,-261.2915039025,281.86798095625
235152,-0.52012500625,0.13111422875,-0.02804151375,181.190490721875,-216.73583984,280.4641723625
235155,-0.531111334375,-0.061512724375,-0.055873545,285.255432128125,-195.648193355625,277.870178221875
235158,-0.38145313125,0.1364853225,-0.074184091875,394.78302001875,-177.917480465,285.499572753125
235161,-0.339216803125,0.588389619375,-0.150355966875,441.53594970625,-134.490966793125,265.846252440625
235164,-0.29893359999999997,0.876963838125,-0.220180185625,409.523010253125,-94.818115230625,220.28350830000002
235167,-0.06065235,1.1599228225,-0.2912251075,323.86016845625,-35.003662105625,170.082092284375
235170,0.148087884375,1.333018525625,-0.386684091875,183.60137939375,48.614501956875,78.98712158125
235173,0.081925775,1.085459931875,-0.4259907325,78.590393065625,147.674560550625,-85.777282715625
235176,-0.093611334375,1.112803681875,-0.458461435625,-15.49530029375,229.73632812875,-257.3776245125
235179,-0.208845709375,1.114756806875,-0.447230966875,-145.5612182625,256.59179687875,-349.72381591875
235182,-0.36973438125,1.063487275625,-0.370082529375,-258.29315185625,252.80761719125,-409.568786621875
235185,-0.27403125625,0.929209931875,-0.38546338875,-335.44158935625,302.337646488125,-477.012634278125
235188,-0.757185553125,0.582041963125,-0.1369282325,-378.440856934375,316.314697269375,-489.67742919999995
235191,-1.04502735,0.5192978225,-0.105434091875,-366.172790528125,261.10839844125,-349.296569825
235194,-0.900251959375,0.352549775625,-0.216762216875,-362.815856934375,217.193603519375,-272.361755371875
235197,-1.06602344375,0.1540634475,-0.0685688575,-305.931091309375,190.8569335975,-239.73846435625
235200,-1.319685553125,0.059336885,0.036655751875,-224.632263184375,127.410888675625,-203.72772216875
235203,-1.5010820375,0.150401338125,0.040073720625,-172.264099121875,55.572509769375,-157.981872559375
235206,-1.588728521875,0.219248994375,0.134312001875,-134.88006591875,-15.350341793125,-149.925231934375
235209,-1.611189459375,0.208018525625,0.115757314375,-86.570739746875,-53.34472655875,-69.45037841875
235212,-1.6573320375,0.280772431875,0.091831533125,-37.254333496875,-88.6840820275,23.536682128125
235215,-1.656111334375,0.3376571975,0.139683095625,-16.441345215625,-171.600341793125,48.988342284375
235218,-1.472761725,0.342784150625,0.108921376875,-7.286071778125,-250.701904293125,33.424377440625
235221,-1.15293750625,0.35377047875,0.005649892500000003,6.752014159375,-282.897949215,50.42266845625
235224,-0.927107428125,0.422373994375,0.012729970625000005,22.560119628125,-279.479980465,95.1614379875
235227,-0.76621875625,0.37818454125,-0.031215341875,51.7044067375,-272.5219726525,126.96075439375
235230,-0.693220709375,0.37134860375,0.016392080000000003,72.51739501875,-266.784667965,109.44366455
235233,-0.542830084375,0.458995088125,0.007358876875000003,74.317932128125,-257.56835937125,85.609436034375
235236,-0.411970709375,0.396983369375,0.028843251875000007,69.22149658125,-228.118896480625,102.363586425
235239,-0.303083990625,0.244151338125,-0.02999463875,99.67803955,-165.3442382775,80.665588378125
235242,-0.464949225,0.19947360375,0.0007670800000000032,167.945861815625,-101.68457030875,79.35333251875
235245,-0.57481250625,0.3064071975,0.07742723625,235.35919189375,-62.43896484,69.46563720625
235248,-0.617048834375,0.563975556875,0.05984911125,249.7024536125,-53.070068355625,41.63360595625
235251,-0.51328906875,0.78004001,0.068882314375,218.6965942375,-33.32519530875,1.59454345625
235254,-0.521833990625,0.96119235375,0.0681498925,147.83477783125,-4.2114257775000015,-33.19549560625
235257,-0.53965625625,0.98755954125,0.0505717675,67.543029784375,16.571044925625,-118.9498901375
235260,-0.58555469375,1.041026338125,0.091831533125,-31.578063965625,37.384033206875,-203.300476075
235263,-0.6280351625,0.894053681875,0.1091655175,-114.37225341875,50.17089844125,-254.99725341875
235266,-0.683699225,0.760752900625,0.100132314375,-168.7545776375,50.262451175625,-303.001403809375
235269,-0.948103521875,0.742930635,0.191440908125,-220.848083496875,32.562255863125,-382.713317871875
235271,-1.027449225,0.82349704125,0.30496629875000003,-277.45819091875,28.44238281625,-376.609802246875
235274,-1.305037115625,0.533702119375,0.399937001875,-336.112976075,12.054443363125,-291.61834716875
235277,-1.42002735,0.030772431875,0.426792470625,-263.450622559375,-44.586181636875,-205.406188965625
235280,-1.50059375625,-0.328602568125,0.4353373925,-141.990661621875,-103.912353511875,-157.15789795
235283,-1.43907031875,-0.3068740525,0.419956533125,-26.84783935625,-159.42382812125,-163.352966309375
235286,-1.40489063125,-0.05443264625,0.536167470625,35.77423095625,-215.911865230625,-161.24725341875
235289,-1.371199225,0.06373141625,0.41482958,42.97637939375,-283.905029293125,-146.659851075
235292,-1.170759771875,-0.01146389625,0.34964403312500003,71.66290283125,-298.004150386875,-118.247985840625
235295,-1.110701178125,-0.240711943125,0.35208543937500003,128.822326659375,-304.93164062125,-123.46649170000002
235298,-0.9346757875,-0.1545303025,0.33133348625000003,183.72344970625,-325.958251949375,-177.36053466875
235301,-0.89903125625,0.004405244375,0.31131395500000003,205.116271971875,-340.69824218375,-226.6159057625
235304,-0.678572271875,0.07154391625,0.31497606437500003,212.562561034375,-326.507568355625,-277.976989746875
235307,-0.5225664125,0.208995088125,0.29202684562500003,187.904357909375,-290.40527343375,-273.42987060625
235310,-0.554060553125,0.2282821975,0.30569872062500003,153.724670409375,-239.19677734,-236.015319825
235313,-0.60703906875,0.112803681875,0.417026845625,142.64678955,-191.2231445275,-217.674255371875
235316,-0.77940235,0.121836885,0.498813955,140.8157348625,-165.863037105625,-224.23553466875
235319,-0.7598710999999999,0.25318454125,0.616733876875,124.122619628125,-167.7856445275,-220.481872559375
235322,-0.6710039125,0.381358369375,0.65750536125,82.801818846875,-170.77636718375,-176.87225341875
235325,-0.6827226625,0.29322360375,0.717563955,42.24395751875,-184.295654293125,-113.3346557625
235328,-0.700056646875,0.192881806875,0.75418504875,20.57647705,-202.728271480625,-92.796325684375
235331,-0.675886725,0.0603134475,0.808628408125,23.780822753125,-210.144042965,-109.1842651375
235334,-0.53575000625,0.017100556875,0.7751811425,29.701232909375,-200.5004882775,-116.294860840625
235337,-0.445662115625,0.030772431875,0.841343251875,30.64727783125,-205.261230465,-119.316101075
235340,-0.4268632875,0.090342744375,0.844761220625,24.635314940625,-189.7583007775,-101.18865966875
235343,-0.480574225,0.09888766625,0.858433095625,17.82989501875,-178.5278320275,-53.611755371875
235346,-0.597029303125,0.020030244375,0.910190908125,31.4407348625,-191.986083980625,-51.170349121875
235349,-0.533064459375,0.15552829125,0.87576708,22.987365721875,-227.508544918125,-64.140319825
235352,-0.505720709375,0.110118135,0.88504442375,11.48223876875,-260.0708007775,-64.56756591875
235355,-0.373884771875,0.068858369375,0.863315908125,10.658264159375,-263.54980468375,-45.15838623125
235358,-0.27891406875,0.05201266625,0.919956533125,14.71710205,-271.85058593375,-22.605895996875
235361,-0.110701178125,0.023448213125,0.90066942375,21.278381346875,-255.1879882775,3.79180908125
235364,-0.003279303125000001,-0.04857327125,0.9040873925,45.631408690625,-231.0180664025,17.46368408125
235367,0.091935540625,-0.049793974375,0.865757314375,63.48419189375,-187.774658199375,22.8958129875
235370,0.16542186875,-0.03392483375,0.918491689375,76.484680175,-133.941650386875,28.846740721875
235373,0.025529290625,0.09986422875,0.854038564375,77.8274536125,-101.92871093375,23.658752440625
235376,-0.061384771875,0.161631806875,0.908970205,68.36700439375,-87.64648437125,24.48272705
235379,-0.0264726625,0.218760713125,0.97879442375,55.000305175,-64.147949215,31.532287596875
235382,-0.067244146875,0.248545869375,1.007847158125,40.870666503125,-44.281005855625,36.781311034375
235385,-0.15879688125,0.219248994375,1.00516161125,29.06036376875,-51.20849609,28.38897705
235388,-0.233259771875,0.15845797875,1.05545458,25.64239501875,-80.3833007775,10.26153564375
235391,-0.160505865625,0.14673922875,1.09207567375,18.80645751875,-110.809326168125,6.23321533125
235394,-0.1592851625,0.114268525625,1.0173686425,21.522521971875,-134.002685543125,9.4680786125
235397,-0.0245195375,0.125498994375,1.022251455,22.377014159375,-139.40429687125,19.386291503125
235400,-0.0108476625,0.070323213125,1.02957567375,35.77423095625,-146.820068355625,25.001525878125
235403,0.098283196875,0.110118135,1.003452626875,42.48809814375,-146.270751949375,39.55841064375
235406,0.267716790625,0.135752900625,0.968784658125,46.51641845625,-121.612548824375,52.37579345625
235409,0.303361321875,0.1755478225,0.924351064375,42.030334471875,-81.268310543125,54.481506346875
235412,0.22841015,0.168467744375,0.91824754875,32.020568846875,-45.593261715,44.5022583
235415,0.16249218125,0.19019626,0.889194814375,13.465881346875,-29.998779293125,34.217834471875
235418,0.078019525,0.162608369375,0.923374501875,2.6016235343750003,-35.491943355625,28.968811034375
235421,0.13319530625,0.116709931875,0.953647939375,1.686096190625,-33.538818355625,6.35528564375
235424,0.202775384375,0.123545869375,0.940952626875,-0.5416870125,-13.214111324375,-8.3541870125
235427,0.171525384375,0.099131806875,0.89529833,-4.783630371875,10.80322266,-2.9830932625
235430,0.1707929625,0.050303681875,0.92508348625,4.188537596875,22.8881835975,3.3645629875000003
235433,0.054582025,0.021006806875,0.932163564375,18.959045409375,17.791748050625,6.507873534375
235436,0.02382030625,-0.010975615,0.978062001875,39.283752440625,-3.17382812125,13.8626098625
235439,0.047013665625,0.03541110375,1.013218251875,57.472229003125,-30.51757812125,15.907287596875
235442,0.09901561875,0.1247665725,1.015171376875,64.09454345625,-38.604736324375,18.44024658125
235445,0.101212884375,0.231456025625,1.040073720625,53.932189940625,-42.755126949375,18.5012817375
235448,0.141251946875,0.27173922875,1.05594286125,37.910461425,-46.4477539025,16.944885253125
235451,0.222306634375,0.266612275625,1.054722158125,18.470764159375,-39.947509761875,15.480041503125
235454,0.286271478125,0.225108369375,1.001011220625,4.76837158125,-15.99121093375,15.480041503125
235457,0.41151561875,0.21119235375,0.955601064375,-4.905700684375,19.28710937875,3.3645629875000003
235460,0.442033196875,0.187998994375,0.899448720625,-13.90838623125,62.469482425625,-5.48553466875
235463,0.310685540625,0.16529391625,0.833530751875,-20.530700684375,91.522216800625,-14.4577026375
235466,0.18934765,0.12232516625,0.851108876875,-21.23260498125,98.8159179725,-17.81463623125
235469,0.0985273375,0.059336885,0.875522939375,-12.7487182625,97.198486331875,-19.859313965625
235472,0.09559765,-0.0014541306250000002,0.89139208,11.756896971875,96.6186523475,-17.8756713875
235475,0.0907148375,0.012461885,0.893345205,40.504455565625,104.339599613125,-13.206481934375
235478,0.154435540625,0.157237275625,0.908726064375,51.124572753125,117.30957031625,-8.29315185625
235481,0.14003124375,0.291514619375,0.915073720625,37.513732909375,134.674072269375,-1.487731934375
235484,0.135880853125,0.33814547875,0.92996629875,11.024475096875,154.266357425625,-8.1100463875
235487,0.126115228125,0.3005478225,0.91434129875,-17.662048340625,176.75781250375,-18.42498779375
235490,0.044083978125,0.207041963125,0.879917470625,-32.127380371875,191.864013675625,-23.460388184375
235493,-0.05283985,0.120616181875,0.881626455,-30.63201904375,194.33593750375,-27.793884278125
